Filename:	C:\Program Files\Pyris\Data\F-Praktikum\WS1819\BA-C-04\Pd-Ni-P_20k-m.dsd

Temperature (°C)	Heat Flow Endo Up (mW)
200.07	0.1641
200.13	0.1641
200.20	0.1641
200.27	0.1645
200.33	0.1648
200.40	0.1651
200.47	0.1654
200.53	0.1651
200.60	0.1641
200.67	0.1635
200.73	0.1623
200.80	0.1617
200.87	0.1620
200.93	0.1641
201.00	0.1676
201.07	0.1734
201.13	0.1812
201.20	0.1905
201.27	0.2019
201.33	0.2146
201.40	0.2286
201.47	0.2437
201.53	0.2592
201.60	0.2750
201.67	0.2905
201.73	0.3060
201.80	0.3202
201.87	0.3339
201.93	0.3459
202.00	0.3562
202.07	0.3655
202.13	0.3732
202.20	0.3797
202.27	0.3843
202.33	0.3887
202.40	0.3918
202.47	0.3936
202.53	0.3949
202.60	0.3955
202.67	0.3955
202.73	0.3952
202.80	0.3939
202.87	0.3924
202.93	0.3908
203.00	0.3887
203.07	0.3871
203.13	0.3853
203.20	0.3840
203.27	0.3825
203.33	0.3809
203.40	0.3794
203.47	0.3775
203.53	0.3754
203.60	0.3729
203.67	0.3707
203.73	0.3686
203.80	0.3667
203.87	0.3645
203.93	0.3633
204.00	0.3617
204.07	0.3602
204.13	0.3593
204.20	0.3583
204.27	0.3577
204.33	0.3571
204.40	0.3565
204.47	0.3565
204.53	0.3562
204.60	0.3565
204.67	0.3568
204.73	0.3571
204.80	0.3574
204.87	0.3577
204.93	0.3583
205.00	0.3586
205.07	0.3589
205.13	0.3593
205.20	0.3593
205.27	0.3596
205.33	0.3596
205.40	0.3593
205.47	0.3589
205.53	0.3589
205.60	0.3589
205.67	0.3589
205.73	0.3589
205.80	0.3593
205.87	0.3599
205.93	0.3602
206.00	0.3605
206.07	0.3614
206.13	0.3624
206.20	0.3633
206.27	0.3642
206.33	0.3651
206.40	0.3661
206.47	0.3673
206.53	0.3682
206.60	0.3692
206.67	0.3704
206.73	0.3713
206.80	0.3716
206.87	0.3723
206.93	0.3732
207.00	0.3735
207.07	0.3741
207.13	0.3744
207.20	0.3747
207.27	0.3751
207.33	0.3754
207.40	0.3757
207.47	0.3760
207.53	0.3763
207.60	0.3769
207.67	0.3772
207.73	0.3775
207.80	0.3785
207.87	0.3788
207.93	0.3794
208.00	0.3800
208.07	0.3809
208.13	0.3816
208.20	0.3825
208.27	0.3834
208.33	0.3840
208.40	0.3847
208.47	0.3853
208.53	0.3859
208.60	0.3865
208.67	0.3874
208.73	0.3881
208.80	0.3890
208.87	0.3893
208.93	0.3899
209.00	0.3908
209.07	0.3915
209.13	0.3924
209.20	0.3933
209.27	0.3943
209.33	0.3952
209.40	0.3955
209.47	0.3964
209.53	0.3970
209.60	0.3980
209.67	0.3986
209.73	0.3992
209.80	0.3998
209.87	0.4005
209.93	0.4011
210.00	0.4017
210.07	0.4026
210.13	0.4032
210.20	0.4039
210.27	0.4048
210.33	0.4057
210.40	0.4066
210.47	0.4073
210.53	0.4079
210.60	0.4085
210.67	0.4091
210.73	0.4094
210.80	0.4101
210.87	0.4107
210.93	0.4110
211.00	0.4116
211.07	0.4119
211.13	0.4125
211.20	0.4128
211.27	0.4135
211.33	0.4138
211.40	0.4144
211.47	0.4150
211.53	0.4156
211.60	0.4159
211.67	0.4162
211.73	0.4169
211.80	0.4172
211.87	0.4175
211.93	0.4178
212.00	0.4184
212.07	0.4184
212.13	0.4187
212.20	0.4190
212.27	0.4197
212.33	0.4197
212.40	0.4200
212.47	0.4206
212.53	0.4209
212.60	0.4212
212.67	0.4215
212.73	0.4215
212.80	0.4215
212.87	0.4218
212.93	0.4218
213.00	0.4221
213.07	0.4221
213.13	0.4221
213.20	0.4221
213.27	0.4221
213.33	0.4221
213.40	0.4221
213.47	0.4224
213.53	0.4221
213.60	0.4224
213.67	0.4221
213.73	0.4224
213.80	0.4224
213.87	0.4221
213.93	0.4221
214.00	0.4218
214.07	0.4218
214.13	0.4215
214.20	0.4212
214.27	0.4215
214.33	0.4212
214.40	0.4215
214.47	0.4215
214.53	0.4215
214.60	0.4215
214.67	0.4215
214.73	0.4218
214.80	0.4224
214.87	0.4227
214.93	0.4231
215.00	0.4237
215.07	0.4240
215.13	0.4246
215.20	0.4249
215.27	0.4258
215.33	0.4258
215.40	0.4262
215.47	0.4268
215.53	0.4271
215.60	0.4271
215.67	0.4277
215.73	0.4277
215.80	0.4280
215.87	0.4283
215.93	0.4286
216.00	0.4289
216.07	0.4293
216.13	0.4296
216.20	0.4296
216.27	0.4296
216.33	0.4299
216.40	0.4302
216.47	0.4305
216.53	0.4305
216.60	0.4308
216.67	0.4311
216.73	0.4311
216.80	0.4317
216.87	0.4320
216.93	0.4320
217.00	0.4320
217.07	0.4320
217.13	0.4324
217.20	0.4324
217.27	0.4324
217.33	0.4324
217.40	0.4327
217.47	0.4327
217.53	0.4330
217.60	0.4330
217.67	0.4333
217.73	0.4336
217.80	0.4342
217.87	0.4348
217.93	0.4348
218.00	0.4354
218.07	0.4358
218.13	0.4361
218.20	0.4364
218.27	0.4367
218.33	0.4370
218.40	0.4373
218.47	0.4373
218.53	0.4373
218.60	0.4370
218.67	0.4373
218.73	0.4370
218.80	0.4367
218.87	0.4367
218.93	0.4364
219.00	0.4358
219.07	0.4351
219.13	0.4351
219.20	0.4351
219.27	0.4348
219.33	0.4345
219.40	0.4342
219.47	0.4336
219.53	0.4333
219.60	0.4330
219.67	0.4327
219.73	0.4324
219.80	0.4320
219.87	0.4317
219.93	0.4317
220.00	0.4314
220.07	0.4314
220.13	0.4317
220.20	0.4314
220.27	0.4314
220.33	0.4314
220.40	0.4311
220.47	0.4311
220.53	0.4311
220.60	0.4311
220.67	0.4308
220.73	0.4308
220.80	0.4302
220.87	0.4296
220.93	0.4289
221.00	0.4280
221.07	0.4271
221.13	0.4258
221.20	0.4246
221.27	0.4237
221.33	0.4227
221.40	0.4215
221.47	0.4209
221.53	0.4203
221.60	0.4203
221.67	0.4200
221.73	0.4200
221.80	0.4200
221.87	0.4203
221.93	0.4203
222.00	0.4209
222.07	0.4215
222.13	0.4221
222.20	0.4227
222.27	0.4231
222.33	0.4237
222.40	0.4243
222.47	0.4249
222.53	0.4255
222.60	0.4258
222.67	0.4262
222.73	0.4268
222.80	0.4271
222.87	0.4277
222.93	0.4280
223.00	0.4280
223.07	0.4286
223.13	0.4286
223.20	0.4289
223.27	0.4293
223.33	0.4293
223.40	0.4293
223.47	0.4293
223.53	0.4299
223.60	0.4299
223.67	0.4302
223.73	0.4305
223.80	0.4308
223.87	0.4311
223.93	0.4314
224.00	0.4320
224.07	0.4324
224.13	0.4324
224.20	0.4324
224.27	0.4324
224.33	0.4327
224.40	0.4327
224.47	0.4327
224.53	0.4327
224.60	0.4324
224.67	0.4324
224.73	0.4320
224.80	0.4320
224.87	0.4314
224.93	0.4311
225.00	0.4308
225.07	0.4308
225.13	0.4308
225.20	0.4305
225.27	0.4305
225.33	0.4305
225.40	0.4308
225.47	0.4305
225.53	0.4305
225.60	0.4308
225.67	0.4305
225.73	0.4305
225.80	0.4305
225.87	0.4305
225.93	0.4302
226.00	0.4305
226.07	0.4302
226.13	0.4299
226.20	0.4296
226.27	0.4296
226.33	0.4289
226.40	0.4286
226.47	0.4280
226.53	0.4277
226.60	0.4274
226.67	0.4274
226.73	0.4271
226.80	0.4271
226.87	0.4268
226.93	0.4265
227.00	0.4265
227.07	0.4265
227.13	0.4262
227.20	0.4262
227.27	0.4262
227.33	0.4258
227.40	0.4258
227.47	0.4262
227.53	0.4258
227.60	0.4262
227.67	0.4258
227.73	0.4258
227.80	0.4255
227.87	0.4255
227.93	0.4249
228.00	0.4249
228.07	0.4246
228.13	0.4246
228.20	0.4246
228.27	0.4240
228.33	0.4240
228.40	0.4240
228.47	0.4237
228.53	0.4234
228.60	0.4234
228.67	0.4234
228.73	0.4234
228.80	0.4231
228.87	0.4231
228.93	0.4231
229.00	0.4231
229.07	0.4224
229.13	0.4224
229.20	0.4224
229.27	0.4221
229.33	0.4218
229.40	0.4218
229.47	0.4215
229.53	0.4215
229.60	0.4209
229.67	0.4209
229.73	0.4206
229.80	0.4203
229.87	0.4200
229.93	0.4197
230.00	0.4197
230.07	0.4193
230.13	0.4187
230.20	0.4187
230.27	0.4184
230.33	0.4181
230.40	0.4178
230.47	0.4175
230.53	0.4169
230.60	0.4169
230.67	0.4166
230.73	0.4159
230.80	0.4159
230.87	0.4153
230.93	0.4150
231.00	0.4144
231.07	0.4138
231.13	0.4135
231.20	0.4128
231.27	0.4125
231.33	0.4122
231.40	0.4119
231.47	0.4116
231.53	0.4113
231.60	0.4113
231.67	0.4113
231.73	0.4110
231.80	0.4110
231.87	0.4110
231.93	0.4107
232.00	0.4107
232.07	0.4104
232.13	0.4097
232.20	0.4097
232.27	0.4094
232.33	0.4088
232.40	0.4082
232.47	0.4076
232.53	0.4073
232.60	0.4066
232.67	0.4060
232.73	0.4054
232.80	0.4051
232.87	0.4045
232.93	0.4035
233.00	0.4032
233.07	0.4026
233.13	0.4020
233.20	0.4014
233.27	0.4005
233.33	0.3998
233.40	0.3995
233.47	0.3989
233.53	0.3986
233.60	0.3980
233.67	0.3977
233.73	0.3970
233.80	0.3961
233.87	0.3958
233.93	0.3952
234.00	0.3946
234.07	0.3939
234.13	0.3930
234.20	0.3921
234.27	0.3912
234.33	0.3905
234.40	0.3896
234.47	0.3887
234.53	0.3881
234.60	0.3868
234.67	0.3862
234.73	0.3856
234.80	0.3850
234.87	0.3847
234.93	0.3843
235.00	0.3837
235.07	0.3837
235.13	0.3834
235.20	0.3831
235.27	0.3828
235.33	0.3828
235.40	0.3828
235.47	0.3828
235.53	0.3828
235.60	0.3828
235.67	0.3822
235.73	0.3822
235.80	0.3822
235.87	0.3812
235.93	0.3806
236.00	0.3800
236.07	0.3794
236.13	0.3788
236.20	0.3782
236.27	0.3775
236.33	0.3772
236.40	0.3769
236.47	0.3766
236.53	0.3760
236.60	0.3754
236.67	0.3747
236.73	0.3741
236.80	0.3735
236.87	0.3729
236.93	0.3726
237.00	0.3720
237.07	0.3716
237.13	0.3710
237.20	0.3710
237.27	0.3710
237.33	0.3707
237.40	0.3707
237.47	0.3707
237.53	0.3704
237.60	0.3701
237.67	0.3701
237.73	0.3698
237.80	0.3698
237.87	0.3692
237.93	0.3692
238.00	0.3689
238.07	0.3679
238.13	0.3676
238.20	0.3673
238.27	0.3667
238.33	0.3664
238.40	0.3658
238.47	0.3655
238.53	0.3648
238.60	0.3645
238.67	0.3642
238.73	0.3636
238.80	0.3633
238.87	0.3630
238.93	0.3624
239.00	0.3620
239.07	0.3617
239.13	0.3611
239.20	0.3605
239.27	0.3602
239.33	0.3599
239.40	0.3593
239.47	0.3586
239.53	0.3577
239.60	0.3571
239.67	0.3568
239.73	0.3559
239.80	0.3552
239.87	0.3546
239.93	0.3540
240.00	0.3534
240.07	0.3531
240.13	0.3524
240.20	0.3524
240.27	0.3524
240.33	0.3521
240.40	0.3518
240.47	0.3518
240.53	0.3515
240.60	0.3512
240.67	0.3509
240.73	0.3506
240.80	0.3503
240.87	0.3497
240.93	0.3493
241.00	0.3490
241.07	0.3487
241.13	0.3478
241.20	0.3475
241.27	0.3469
241.33	0.3463
241.40	0.3456
241.47	0.3453
241.53	0.3447
241.60	0.3441
241.67	0.3438
241.73	0.3432
241.80	0.3432
241.87	0.3425
241.93	0.3425
242.00	0.3422
242.07	0.3419
242.13	0.3413
242.20	0.3407
242.27	0.3404
242.33	0.3397
242.40	0.3394
242.47	0.3388
242.53	0.3382
242.60	0.3379
242.67	0.3373
242.73	0.3367
242.80	0.3367
242.87	0.3360
242.93	0.3357
243.00	0.3351
243.07	0.3351
243.13	0.3342
243.20	0.3339
243.27	0.3336
243.33	0.3332
243.40	0.3329
243.47	0.3326
243.53	0.3326
243.60	0.3326
243.67	0.3326
243.73	0.3326
243.80	0.3326
243.87	0.3326
243.93	0.3323
244.00	0.3320
244.07	0.3320
244.13	0.3317
244.20	0.3314
244.27	0.3308
244.33	0.3305
244.40	0.3301
244.47	0.3295
244.53	0.3295
244.60	0.3289
244.67	0.3289
244.73	0.3286
244.80	0.3283
244.87	0.3277
244.93	0.3274
245.00	0.3271
245.07	0.3264
245.13	0.3261
245.20	0.3255
245.27	0.3249
245.33	0.3246
245.40	0.3240
245.47	0.3233
245.53	0.3230
245.60	0.3227
245.67	0.3221
245.73	0.3218
245.80	0.3212
245.87	0.3202
245.93	0.3199
246.00	0.3193
246.07	0.3187
246.13	0.3181
246.20	0.3174
246.27	0.3165
246.33	0.3162
246.40	0.3156
246.47	0.3150
246.53	0.3147
246.60	0.3144
246.67	0.3137
246.73	0.3131
246.80	0.3131
246.87	0.3125
246.93	0.3122
247.00	0.3122
247.07	0.3119
247.13	0.3113
247.20	0.3113
247.27	0.3109
247.33	0.3106
247.40	0.3106
247.47	0.3100
247.53	0.3097
247.60	0.3094
247.67	0.3091
247.73	0.3088
247.80	0.3088
247.87	0.3082
247.93	0.3078
248.00	0.3075
248.07	0.3072
248.13	0.3066
248.20	0.3060
248.27	0.3057
248.33	0.3054
248.40	0.3048
248.47	0.3041
248.53	0.3038
248.60	0.3032
248.67	0.3026
248.73	0.3023
248.80	0.3013
248.87	0.3004
248.93	0.3001
249.00	0.2995
249.07	0.2989
249.13	0.2979
249.20	0.2970
249.27	0.2964
249.33	0.2961
249.40	0.2955
249.47	0.2952
249.53	0.2945
249.60	0.2942
249.67	0.2939
249.73	0.2936
249.80	0.2936
249.87	0.2933
249.93	0.2933
250.00	0.2933
250.07	0.2930
250.13	0.2927
250.20	0.2927
250.27	0.2924
250.33	0.2917
250.40	0.2917
250.47	0.2914
250.53	0.2911
250.60	0.2911
250.67	0.2908
250.73	0.2905
250.80	0.2902
250.87	0.2902
250.93	0.2896
251.00	0.2896
251.07	0.2890
251.13	0.2886
251.20	0.2883
251.27	0.2877
251.33	0.2871
251.40	0.2868
251.47	0.2862
251.53	0.2859
251.60	0.2855
251.67	0.2852
251.73	0.2846
251.80	0.2846
251.87	0.2843
251.93	0.2840
252.00	0.2840
252.07	0.2837
252.13	0.2837
252.20	0.2834
252.27	0.2831
252.33	0.2831
252.40	0.2828
252.47	0.2825
252.53	0.2818
252.60	0.2812
252.67	0.2809
252.73	0.2806
252.80	0.2803
252.87	0.2797
252.93	0.2797
253.00	0.2794
253.07	0.2794
253.13	0.2790
253.20	0.2787
253.27	0.2784
253.33	0.2781
253.40	0.2775
253.47	0.2775
253.53	0.2769
253.60	0.2766
253.67	0.2763
253.73	0.2756
253.80	0.2750
253.87	0.2744
253.93	0.2741
254.00	0.2735
254.07	0.2732
254.13	0.2729
254.20	0.2729
254.27	0.2729
254.33	0.2729
254.40	0.2729
254.47	0.2729
254.53	0.2725
254.60	0.2722
254.67	0.2719
254.73	0.2719
254.80	0.2713
254.87	0.2710
254.93	0.2707
255.00	0.2701
255.07	0.2701
255.13	0.2694
255.20	0.2688
255.27	0.2685
255.33	0.2682
255.40	0.2679
255.47	0.2676
255.53	0.2676
255.60	0.2673
255.67	0.2670
255.73	0.2670
255.80	0.2670
255.87	0.2670
255.93	0.2670
256.00	0.2670
256.07	0.2670
256.13	0.2670
256.20	0.2670
256.27	0.2670
256.33	0.2667
256.40	0.2663
256.47	0.2663
256.53	0.2660
256.60	0.2657
256.67	0.2654
256.73	0.2651
256.80	0.2648
256.87	0.2648
256.93	0.2645
257.00	0.2642
257.07	0.2639
257.13	0.2633
257.20	0.2629
257.27	0.2626
257.33	0.2626
257.40	0.2623
257.47	0.2620
257.53	0.2620
257.60	0.2617
257.67	0.2614
257.73	0.2614
257.80	0.2611
257.87	0.2605
257.93	0.2605
258.00	0.2602
258.07	0.2595
258.13	0.2592
258.20	0.2589
258.27	0.2589
258.33	0.2583
258.40	0.2583
258.47	0.2577
258.53	0.2577
258.60	0.2577
258.67	0.2571
258.73	0.2571
258.80	0.2571
258.87	0.2571
258.93	0.2571
259.00	0.2574
259.07	0.2574
259.13	0.2574
259.20	0.2574
259.27	0.2574
259.33	0.2574
259.40	0.2571
259.47	0.2571
259.53	0.2571
259.60	0.2571
259.67	0.2567
259.73	0.2567
259.80	0.2567
259.87	0.2564
259.93	0.2561
260.00	0.2561
260.07	0.2555
260.13	0.2552
260.20	0.2549
260.27	0.2549
260.33	0.2549
260.40	0.2549
260.47	0.2546
260.53	0.2543
260.60	0.2540
260.67	0.2540
260.73	0.2543
260.80	0.2540
260.87	0.2540
260.93	0.2543
261.00	0.2540
261.07	0.2540
261.13	0.2540
261.20	0.2540
261.27	0.2540
261.33	0.2540
261.40	0.2540
261.47	0.2540
261.53	0.2540
261.60	0.2540
261.67	0.2540
261.73	0.2540
261.80	0.2536
261.87	0.2536
261.93	0.2530
262.00	0.2530
262.07	0.2530
262.13	0.2527
262.20	0.2527
262.27	0.2527
262.33	0.2524
262.40	0.2524
262.47	0.2521
262.53	0.2521
262.60	0.2521
262.67	0.2518
262.73	0.2521
262.80	0.2518
262.87	0.2518
262.93	0.2515
263.00	0.2512
263.07	0.2512
263.13	0.2509
263.20	0.2506
263.27	0.2502
263.33	0.2499
263.40	0.2496
263.47	0.2493
263.53	0.2493
263.60	0.2487
263.67	0.2484
263.73	0.2478
263.80	0.2475
263.87	0.2471
263.93	0.2471
264.00	0.2471
264.07	0.2471
264.13	0.2465
264.20	0.2465
264.27	0.2462
264.33	0.2459
264.40	0.2453
264.47	0.2453
264.53	0.2450
264.60	0.2450
264.67	0.2447
264.73	0.2447
264.80	0.2444
264.87	0.2444
264.93	0.2440
265.00	0.2440
265.07	0.2437
265.13	0.2437
265.20	0.2434
265.27	0.2434
265.33	0.2431
265.40	0.2431
265.47	0.2431
265.53	0.2431
265.60	0.2425
265.67	0.2425
265.73	0.2422
265.80	0.2422
265.87	0.2419
265.93	0.2416
266.00	0.2413
266.07	0.2413
266.13	0.2406
266.20	0.2406
266.27	0.2406
266.33	0.2406
266.40	0.2403
266.47	0.2403
266.53	0.2403
266.60	0.2403
266.67	0.2403
266.73	0.2403
266.80	0.2403
266.87	0.2403
266.93	0.2403
267.00	0.2403
267.07	0.2406
267.13	0.2406
267.20	0.2410
267.27	0.2410
267.33	0.2410
267.40	0.2410
267.47	0.2413
267.53	0.2413
267.60	0.2410
267.67	0.2410
267.73	0.2410
267.80	0.2413
267.87	0.2413
267.93	0.2413
268.00	0.2416
268.07	0.2416
268.13	0.2419
268.20	0.2419
268.27	0.2422
268.33	0.2419
268.40	0.2422
268.47	0.2422
268.53	0.2422
268.60	0.2422
268.67	0.2422
268.73	0.2422
268.80	0.2425
268.87	0.2425
268.93	0.2425
269.00	0.2428
269.07	0.2425
269.13	0.2425
269.20	0.2425
269.27	0.2425
269.33	0.2422
269.40	0.2422
269.47	0.2419
269.53	0.2422
269.60	0.2422
269.67	0.2419
269.73	0.2419
269.80	0.2419
269.87	0.2419
269.93	0.2419
270.00	0.2422
270.07	0.2422
270.13	0.2422
270.20	0.2419
270.27	0.2419
270.33	0.2419
270.40	0.2416
270.47	0.2419
270.53	0.2416
270.60	0.2413
270.67	0.2413
270.73	0.2413
270.80	0.2413
270.87	0.2413
270.93	0.2413
271.00	0.2413
271.07	0.2416
271.13	0.2413
271.20	0.2416
271.27	0.2419
271.33	0.2416
271.40	0.2419
271.47	0.2422
271.53	0.2425
271.60	0.2425
271.67	0.2431
271.73	0.2434
271.80	0.2437
271.87	0.2440
271.93	0.2440
272.00	0.2444
272.07	0.2444
272.13	0.2447
272.20	0.2447
272.27	0.2450
272.33	0.2447
272.40	0.2450
272.47	0.2453
272.53	0.2453
272.60	0.2453
272.67	0.2456
272.73	0.2459
272.80	0.2462
272.87	0.2462
272.93	0.2462
273.00	0.2465
273.07	0.2462
273.13	0.2462
273.20	0.2465
273.27	0.2462
273.33	0.2465
273.40	0.2465
273.47	0.2462
273.53	0.2462
273.60	0.2462
273.67	0.2462
273.73	0.2462
273.80	0.2459
273.87	0.2462
273.93	0.2459
274.00	0.2459
274.07	0.2456
274.13	0.2459
274.20	0.2456
274.27	0.2459
274.33	0.2462
274.40	0.2465
274.47	0.2468
274.53	0.2471
274.60	0.2475
274.67	0.2478
274.73	0.2481
274.80	0.2481
274.87	0.2481
274.93	0.2484
275.00	0.2481
275.07	0.2478
275.13	0.2478
275.20	0.2475
275.27	0.2475
275.33	0.2471
275.40	0.2468
275.47	0.2468
275.53	0.2468
275.60	0.2465
275.67	0.2465
275.73	0.2462
275.80	0.2462
275.87	0.2462
275.93	0.2462
276.00	0.2468
276.07	0.2471
276.13	0.2468
276.20	0.2475
276.27	0.2478
276.33	0.2478
276.40	0.2481
276.47	0.2484
276.53	0.2484
276.60	0.2487
276.67	0.2490
276.73	0.2493
276.80	0.2499
276.87	0.2502
276.93	0.2506
277.00	0.2509
277.07	0.2515
277.13	0.2518
277.20	0.2521
277.27	0.2521
277.33	0.2527
277.40	0.2530
277.47	0.2527
277.53	0.2530
277.60	0.2530
277.67	0.2530
277.73	0.2527
277.80	0.2524
277.87	0.2524
277.93	0.2524
278.00	0.2524
278.07	0.2527
278.13	0.2527
278.20	0.2530
278.27	0.2530
278.33	0.2533
278.40	0.2536
278.47	0.2540
278.53	0.2543
278.60	0.2546
278.67	0.2549
278.73	0.2549
278.80	0.2552
278.87	0.2555
278.93	0.2555
279.00	0.2558
279.07	0.2558
279.13	0.2558
279.20	0.2564
279.27	0.2561
279.33	0.2561
279.40	0.2564
279.47	0.2561
279.53	0.2561
279.60	0.2564
279.67	0.2564
279.73	0.2564
279.80	0.2564
279.87	0.2561
279.93	0.2561
280.00	0.2564
280.07	0.2564
280.13	0.2564
280.20	0.2567
280.27	0.2571
280.33	0.2571
280.40	0.2574
280.47	0.2577
280.53	0.2583
280.60	0.2589
280.67	0.2592
280.73	0.2595
280.80	0.2602
280.87	0.2602
280.93	0.2602
281.00	0.2608
281.07	0.2608
281.13	0.2608
281.20	0.2608
281.27	0.2608
281.33	0.2614
281.40	0.2614
281.47	0.2620
281.53	0.2623
281.60	0.2623
281.67	0.2626
281.73	0.2629
281.80	0.2629
281.87	0.2636
281.93	0.2636
282.00	0.2639
282.07	0.2642
282.13	0.2645
282.20	0.2651
282.27	0.2654
282.33	0.2654
282.40	0.2660
282.47	0.2663
282.53	0.2667
282.60	0.2670
282.67	0.2676
282.73	0.2679
282.80	0.2682
282.87	0.2685
282.93	0.2691
283.00	0.2694
283.07	0.2701
283.13	0.2704
283.20	0.2710
283.27	0.2713
283.33	0.2716
283.40	0.2719
283.47	0.2722
283.53	0.2722
283.60	0.2729
283.67	0.2729
283.73	0.2732
283.80	0.2735
283.87	0.2735
283.93	0.2735
284.00	0.2735
284.07	0.2735
284.13	0.2738
284.20	0.2738
284.27	0.2741
284.33	0.2744
284.40	0.2747
284.47	0.2750
284.53	0.2750
284.60	0.2753
284.67	0.2753
284.73	0.2756
284.80	0.2759
284.87	0.2759
284.93	0.2766
285.00	0.2769
285.07	0.2772
285.13	0.2775
285.20	0.2778
285.27	0.2784
285.33	0.2787
285.40	0.2787
285.47	0.2794
285.53	0.2797
285.60	0.2803
285.67	0.2809
285.73	0.2815
285.80	0.2821
285.87	0.2825
285.93	0.2831
286.00	0.2837
286.07	0.2840
286.13	0.2843
286.20	0.2849
286.27	0.2852
286.33	0.2855
286.40	0.2862
286.47	0.2865
286.53	0.2868
286.60	0.2871
286.67	0.2874
286.73	0.2874
286.80	0.2877
286.87	0.2877
286.93	0.2880
287.00	0.2880
287.07	0.2883
287.13	0.2890
287.20	0.2893
287.27	0.2896
287.33	0.2899
287.40	0.2908
287.47	0.2914
287.53	0.2917
287.60	0.2924
287.67	0.2930
287.73	0.2936
287.80	0.2939
287.87	0.2945
287.93	0.2945
288.00	0.2948
288.07	0.2955
288.13	0.2955
288.20	0.2958
288.27	0.2958
288.33	0.2964
288.40	0.2961
288.47	0.2961
288.53	0.2964
288.60	0.2964
288.67	0.2967
288.73	0.2970
288.80	0.2970
288.87	0.2973
288.93	0.2976
289.00	0.2982
289.07	0.2982
289.13	0.2989
289.20	0.2992
289.27	0.2998
289.33	0.3004
289.40	0.3013
289.47	0.3023
289.53	0.3029
289.60	0.3038
289.67	0.3048
289.73	0.3054
289.80	0.3063
289.87	0.3072
289.93	0.3078
290.00	0.3088
290.07	0.3094
290.13	0.3103
290.20	0.3109
290.27	0.3116
290.33	0.3125
290.40	0.3134
290.47	0.3140
290.53	0.3150
290.60	0.3156
290.67	0.3165
290.73	0.3174
290.80	0.3181
290.87	0.3190
290.93	0.3196
291.00	0.3205
291.07	0.3212
291.13	0.3215
291.20	0.3221
291.27	0.3224
291.33	0.3224
291.40	0.3215
291.47	0.3190
291.53	0.3140
291.60	0.3078
291.67	0.3007
291.73	0.2936
291.80	0.2874
291.87	0.2821
291.93	0.2781
292.00	0.2753
292.07	0.2744
292.13	0.2747
292.20	0.2756
292.27	0.2781
292.33	0.2812
292.40	0.2846
292.47	0.2890
292.53	0.2933
292.60	0.2979
292.67	0.3023
292.73	0.3069
292.80	0.3116
292.87	0.3159
292.93	0.3199
293.00	0.3240
293.07	0.3277
293.13	0.3308
293.20	0.3339
293.27	0.3367
293.33	0.3388
293.40	0.3413
293.47	0.3435
293.53	0.3453
293.60	0.3472
293.67	0.3490
293.73	0.3509
293.80	0.3524
293.87	0.3540
293.93	0.3552
294.00	0.3568
294.07	0.3580
294.13	0.3593
294.20	0.3602
294.27	0.3614
294.33	0.3624
294.40	0.3633
294.47	0.3642
294.53	0.3651
294.60	0.3661
294.67	0.3670
294.73	0.3679
294.80	0.3689
294.87	0.3704
294.93	0.3716
295.00	0.3726
295.07	0.3741
295.13	0.3754
295.20	0.3766
295.27	0.3775
295.33	0.3788
295.40	0.3800
295.47	0.3812
295.53	0.3822
295.60	0.3831
295.67	0.3840
295.73	0.3850
295.80	0.3853
295.87	0.3862
295.93	0.3871
296.00	0.3884
296.07	0.3893
296.13	0.3908
296.20	0.3921
296.27	0.3933
296.33	0.3946
296.40	0.3958
296.47	0.3967
296.53	0.3977
296.60	0.3989
296.67	0.3998
296.73	0.4011
296.80	0.4020
296.87	0.4032
296.93	0.4039
297.00	0.4051
297.07	0.4063
297.13	0.4076
297.20	0.4088
297.27	0.4101
297.33	0.4116
297.40	0.4131
297.47	0.4147
297.53	0.4159
297.60	0.4169
297.67	0.4184
297.73	0.4197
297.80	0.4209
297.87	0.4218
297.93	0.4231
298.00	0.4243
298.07	0.4255
298.13	0.4268
298.20	0.4277
298.27	0.4289
298.33	0.4305
298.40	0.4317
298.47	0.4330
298.53	0.4345
298.60	0.4358
298.67	0.4373
298.73	0.4389
298.80	0.4404
298.87	0.4420
298.93	0.4435
299.00	0.4450
299.07	0.4466
299.13	0.4481
299.20	0.4500
299.27	0.4516
299.33	0.4534
299.40	0.4550
299.47	0.4565
299.53	0.4581
299.60	0.4596
299.67	0.4612
299.73	0.4627
299.80	0.4643
299.87	0.4661
299.93	0.4673
300.00	0.4692
300.07	0.4708
300.13	0.4723
300.20	0.4742
300.27	0.4754
300.33	0.4769
300.40	0.4785
300.47	0.4804
300.53	0.4816
300.60	0.4835
300.67	0.4847
300.73	0.4865
300.80	0.4881
300.87	0.4900
300.93	0.4915
301.00	0.4931
301.07	0.4949
301.13	0.4965
301.20	0.4983
301.27	0.4996
301.33	0.5014
301.40	0.5033
301.47	0.5051
301.53	0.5073
301.60	0.5092
301.67	0.5107
301.73	0.5126
301.80	0.5144
301.87	0.5163
301.93	0.5181
302.00	0.5197
302.07	0.5212
302.13	0.5231
302.20	0.5246
302.27	0.5265
302.33	0.5284
302.40	0.5299
302.47	0.5318
302.53	0.5339
302.60	0.5358
302.67	0.5377
302.73	0.5395
302.80	0.5417
302.87	0.5438
302.93	0.5460
303.00	0.5479
303.07	0.5503
303.13	0.5522
303.20	0.5544
303.27	0.5569
303.33	0.5590
303.40	0.5612
303.47	0.5637
303.53	0.5661
303.60	0.5683
303.67	0.5711
303.73	0.5739
303.80	0.5761
303.87	0.5788
303.93	0.5813
304.00	0.5841
304.07	0.5866
304.13	0.5891
304.20	0.5918
304.27	0.5940
304.33	0.5968
304.40	0.5993
304.47	0.6018
304.53	0.6042
304.60	0.6070
304.67	0.6092
304.73	0.6117
304.80	0.6138
304.87	0.6160
304.93	0.6185
305.00	0.6207
305.07	0.6228
305.13	0.6250
305.20	0.6275
305.27	0.6299
305.33	0.6324
305.40	0.6349
305.47	0.6377
305.53	0.6399
305.60	0.6426
305.67	0.6454
305.73	0.6479
305.80	0.6507
305.87	0.6535
305.93	0.6556
306.00	0.6584
306.07	0.6609
306.13	0.6637
306.20	0.6665
306.27	0.6693
306.33	0.6721
306.40	0.6749
306.47	0.6776
306.53	0.6804
306.60	0.6835
306.67	0.6863
306.73	0.6891
306.80	0.6922
306.87	0.6950
306.93	0.6981
307.00	0.7012
307.07	0.7040
307.13	0.7071
307.20	0.7098
307.27	0.7129
307.33	0.7160
307.40	0.7191
307.47	0.7219
307.53	0.7250
307.60	0.7278
307.67	0.7309
307.73	0.7340
307.80	0.7371
307.87	0.7402
307.93	0.7433
308.00	0.7464
308.07	0.7495
308.13	0.7526
308.20	0.7557
308.27	0.7588
308.33	0.7616
308.40	0.7644
308.47	0.7671
308.53	0.7702
308.60	0.7730
308.67	0.7758
308.73	0.7789
308.80	0.7823
308.87	0.7854
308.93	0.7891
309.00	0.7925
309.07	0.7956
309.13	0.7994
309.20	0.8031
309.27	0.8065
309.33	0.8102
309.40	0.8136
309.47	0.8170
309.53	0.8204
309.60	0.8238
309.67	0.8272
309.73	0.8303
309.80	0.8340
309.87	0.8374
309.93	0.8412
310.00	0.8449
310.07	0.8486
310.13	0.8523
310.20	0.8563
310.27	0.8601
310.33	0.8641
310.40	0.8678
310.47	0.8715
310.53	0.8749
310.60	0.8789
310.67	0.8830
310.73	0.8864
310.80	0.8904
310.87	0.8944
310.93	0.8981
311.00	0.9025
311.07	0.9068
311.13	0.9108
311.20	0.9152
311.27	0.9195
311.33	0.9239
311.40	0.9282
311.47	0.9322
311.53	0.9362
311.60	0.9403
311.67	0.9446
311.73	0.9483
311.80	0.9520
311.87	0.9558
311.93	0.9598
312.00	0.9638
312.07	0.9675
312.13	0.9715
312.20	0.9756
312.27	0.9793
312.33	0.9833
312.40	0.9873
312.47	0.9911
312.53	0.9951
312.60	0.9991
312.67	1.0034
312.73	1.0078
312.80	1.0121
312.87	1.0165
312.93	1.0208
313.00	1.0248
313.07	1.0295
313.13	1.0338
313.20	1.0381
313.27	1.0422
313.33	1.0465
313.40	1.0511
313.47	1.0555
313.53	1.0595
313.60	1.0638
313.67	1.0679
313.73	1.0719
313.80	1.0762
313.87	1.0803
313.93	1.0846
314.00	1.0883
314.07	1.0920
314.13	1.0961
314.20	1.1001
314.27	1.1038
314.33	1.1075
314.40	1.1112
314.47	1.1153
314.53	1.1193
314.60	1.1236
314.67	1.1273
314.73	1.1314
314.80	1.1357
314.87	1.1397
314.93	1.1441
315.00	1.1484
315.07	1.1527
315.13	1.1571
315.20	1.1611
315.27	1.1654
315.33	1.1698
315.40	1.1741
315.47	1.1781
315.53	1.1825
315.60	1.1871
315.67	1.1914
315.73	1.1955
315.80	1.1995
315.87	1.2035
315.93	1.2079
316.00	1.2119
316.07	1.2156
316.13	1.2199
316.20	1.2237
316.27	1.2277
316.33	1.2314
316.40	1.2351
316.47	1.2391
316.53	1.2425
316.60	1.2463
316.67	1.2497
316.73	1.2534
316.80	1.2568
316.87	1.2608
316.93	1.2645
317.00	1.2679
317.07	1.2717
317.13	1.2751
317.20	1.2788
317.27	1.2825
317.33	1.2859
317.40	1.2893
317.47	1.2924
317.53	1.2961
317.60	1.2992
317.67	1.3026
317.73	1.3057
317.80	1.3088
317.87	1.3122
317.93	1.3150
318.00	1.3181
318.07	1.3212
318.13	1.3240
318.20	1.3271
318.27	1.3302
318.33	1.3330
318.40	1.3361
318.47	1.3392
318.53	1.3426
318.60	1.3457
318.67	1.3485
318.73	1.3512
318.80	1.3540
318.87	1.3568
318.93	1.3593
319.00	1.3621
319.07	1.3649
319.13	1.3674
319.20	1.3698
319.27	1.3723
319.33	1.3748
319.40	1.3773
319.47	1.3794
319.53	1.3819
319.60	1.3841
319.67	1.3862
319.73	1.3887
319.80	1.3906
319.87	1.3931
319.93	1.3949
320.00	1.3968
320.07	1.3983
320.13	1.3999
320.20	1.4014
320.27	1.4030
320.33	1.4039
320.40	1.4051
320.47	1.4064
320.53	1.4073
320.60	1.4082
320.67	1.4095
320.73	1.4104
320.80	1.4113
320.87	1.4120
320.93	1.4126
321.00	1.4132
321.07	1.4138
321.13	1.4141
321.20	1.4144
321.27	1.4147
321.33	1.4154
321.40	1.4154
321.47	1.4160
321.53	1.4160
321.60	1.4166
321.67	1.4166
321.73	1.4169
321.80	1.4172
321.87	1.4175
321.93	1.4172
322.00	1.4175
322.07	1.4172
322.13	1.4166
322.20	1.4166
322.27	1.4160
322.33	1.4154
322.40	1.4147
322.47	1.4144
322.53	1.4138
322.60	1.4132
322.67	1.4126
322.73	1.4123
322.80	1.4120
322.87	1.4116
322.93	1.4110
323.00	1.4107
323.07	1.4101
323.13	1.4092
323.20	1.4085
323.27	1.4076
323.33	1.4067
323.40	1.4061
323.47	1.4054
323.53	1.4042
323.60	1.4036
323.67	1.4027
323.73	1.4017
323.80	1.4008
323.87	1.4002
323.93	1.3989
324.00	1.3980
324.07	1.3968
324.13	1.3958
324.20	1.3949
324.27	1.3937
324.33	1.3928
324.40	1.3915
324.47	1.3909
324.53	1.3897
324.60	1.3884
324.67	1.3875
324.73	1.3866
324.80	1.3853
324.87	1.3841
324.93	1.3831
325.00	1.3816
325.07	1.3804
325.13	1.3791
325.20	1.3779
325.27	1.3766
325.33	1.3751
325.40	1.3739
325.47	1.3726
325.53	1.3714
325.60	1.3698
325.67	1.3689
325.73	1.3674
325.80	1.3664
325.87	1.3649
325.93	1.3639
326.00	1.3624
326.07	1.3615
326.13	1.3602
326.20	1.3590
326.27	1.3578
326.33	1.3565
326.40	1.3556
326.47	1.3547
326.53	1.3537
326.60	1.3525
326.67	1.3516
326.73	1.3506
326.80	1.3494
326.87	1.3482
326.93	1.3469
327.00	1.3457
327.07	1.3441
327.13	1.3429
327.20	1.3413
327.27	1.3401
327.33	1.3392
327.40	1.3379
327.47	1.3367
327.53	1.3355
327.60	1.3345
327.67	1.3336
327.73	1.3327
327.80	1.3320
327.87	1.3314
327.93	1.3305
328.00	1.3299
328.07	1.3296
328.13	1.3290
328.20	1.3280
328.27	1.3277
328.33	1.3268
328.40	1.3262
328.47	1.3259
328.53	1.3252
328.60	1.3243
328.67	1.3237
328.73	1.3231
328.80	1.3224
328.87	1.3218
328.93	1.3209
329.00	1.3203
329.07	1.3197
329.13	1.3190
329.20	1.3181
329.27	1.3169
329.33	1.3163
329.40	1.3150
329.47	1.3144
329.53	1.3135
329.60	1.3125
329.67	1.3116
329.73	1.3107
329.80	1.3097
329.87	1.3088
329.93	1.3079
330.00	1.3070
330.07	1.3060
330.13	1.3057
330.20	1.3048
330.27	1.3039
330.33	1.3036
330.40	1.3029
330.47	1.3023
330.53	1.3017
330.60	1.3014
330.67	1.3008
330.73	1.3001
330.80	1.2995
330.87	1.2989
330.93	1.2986
331.00	1.2980
331.07	1.2974
331.13	1.2971
331.20	1.2967
331.27	1.2967
331.33	1.2961
331.40	1.2958
331.47	1.2958
331.53	1.2952
331.60	1.2952
331.67	1.2949
331.73	1.2946
331.80	1.2943
331.87	1.2940
331.93	1.2936
332.00	1.2933
332.07	1.2930
332.13	1.2930
332.20	1.2927
332.27	1.2924
332.33	1.2921
332.40	1.2918
332.47	1.2915
332.53	1.2915
332.60	1.2912
332.67	1.2909
332.73	1.2905
332.80	1.2905
332.87	1.2899
332.93	1.2899
333.00	1.2896
333.07	1.2893
333.13	1.2890
333.20	1.2887
333.27	1.2884
333.33	1.2881
333.40	1.2878
333.47	1.2875
333.53	1.2868
333.60	1.2868
333.67	1.2862
333.73	1.2859
333.80	1.2859
333.87	1.2853
333.93	1.2850
334.00	1.2844
334.07	1.2837
334.13	1.2831
334.20	1.2828
334.27	1.2819
334.33	1.2816
334.40	1.2806
334.47	1.2800
334.53	1.2794
334.60	1.2788
334.67	1.2782
334.73	1.2772
334.80	1.2769
334.87	1.2763
334.93	1.2760
335.00	1.2754
335.07	1.2751
335.13	1.2751
335.20	1.2748
335.27	1.2744
335.33	1.2744
335.40	1.2741
335.47	1.2735
335.53	1.2732
335.60	1.2729
335.67	1.2726
335.73	1.2720
335.80	1.2717
335.87	1.2713
335.93	1.2713
336.00	1.2710
336.07	1.2707
336.13	1.2707
336.20	1.2701
336.27	1.2698
336.33	1.2695
336.40	1.2692
336.47	1.2689
336.53	1.2686
336.60	1.2682
336.67	1.2679
336.73	1.2679
336.80	1.2679
336.87	1.2679
336.93	1.2679
337.00	1.2679
337.07	1.2676
337.13	1.2676
337.20	1.2670
337.27	1.2667
337.33	1.2667
337.40	1.2664
337.47	1.2661
337.53	1.2658
337.60	1.2658
337.67	1.2658
337.73	1.2658
337.80	1.2655
337.87	1.2652
337.93	1.2648
338.00	1.2648
338.07	1.2645
338.13	1.2642
338.20	1.2639
338.27	1.2636
338.33	1.2630
338.40	1.2627
338.47	1.2624
338.53	1.2617
338.60	1.2614
338.67	1.2611
338.73	1.2608
338.80	1.2608
338.87	1.2605
338.93	1.2605
339.00	1.2599
339.07	1.2596
339.13	1.2593
339.20	1.2593
339.27	1.2590
339.33	1.2580
339.40	1.2577
339.47	1.2577
339.53	1.2574
339.60	1.2571
339.67	1.2568
339.73	1.2565
339.80	1.2568
339.87	1.2565
339.93	1.2565
340.00	1.2565
340.07	1.2562
340.13	1.2565
340.20	1.2562
340.27	1.2565
340.33	1.2562
340.40	1.2562
340.47	1.2562
340.53	1.2559
340.60	1.2559
340.67	1.2556
340.73	1.2559
340.80	1.2556
340.87	1.2552
340.93	1.2552
341.00	1.2549
341.07	1.2549
341.13	1.2549
341.20	1.2549
341.27	1.2549
341.33	1.2549
341.40	1.2549
341.47	1.2552
341.53	1.2556
341.60	1.2556
341.67	1.2556
341.73	1.2556
341.80	1.2552
341.87	1.2552
341.93	1.2552
342.00	1.2546
342.07	1.2546
342.13	1.2546
342.20	1.2543
342.27	1.2543
342.33	1.2540
342.40	1.2540
342.47	1.2540
342.53	1.2537
342.60	1.2537
342.67	1.2531
342.73	1.2531
342.80	1.2528
342.87	1.2525
342.93	1.2521
343.00	1.2518
343.07	1.2518
343.13	1.2512
343.20	1.2509
343.27	1.2506
343.33	1.2503
343.40	1.2500
343.47	1.2494
343.53	1.2487
343.60	1.2484
343.67	1.2481
343.73	1.2478
343.80	1.2478
343.87	1.2475
343.93	1.2478
344.00	1.2475
344.07	1.2478
344.13	1.2475
344.20	1.2478
344.27	1.2481
344.33	1.2481
344.40	1.2478
344.47	1.2481
344.53	1.2481
344.60	1.2481
344.67	1.2478
344.73	1.2481
344.80	1.2481
344.87	1.2481
344.93	1.2481
345.00	1.2478
345.07	1.2478
345.13	1.2478
345.20	1.2475
345.27	1.2475
345.33	1.2472
345.40	1.2469
345.47	1.2469
345.53	1.2466
345.60	1.2463
345.67	1.2463
345.73	1.2456
345.80	1.2456
345.87	1.2453
345.93	1.2450
346.00	1.2450
346.07	1.2447
346.13	1.2447
346.20	1.2441
346.27	1.2438
346.33	1.2438
346.40	1.2435
346.47	1.2432
346.53	1.2432
346.60	1.2432
346.67	1.2425
346.73	1.2425
346.80	1.2425
346.87	1.2425
346.93	1.2425
347.00	1.2425
347.07	1.2425
347.13	1.2425
347.20	1.2425
347.27	1.2422
347.33	1.2419
347.40	1.2416
347.47	1.2416
347.53	1.2416
347.60	1.2413
347.67	1.2413
347.73	1.2413
347.80	1.2413
347.87	1.2410
347.93	1.2410
348.00	1.2407
348.07	1.2407
348.13	1.2407
348.20	1.2404
348.27	1.2404
348.33	1.2404
348.40	1.2404
348.47	1.2407
348.53	1.2407
348.60	1.2407
348.67	1.2404
348.73	1.2404
348.80	1.2398
348.87	1.2398
348.93	1.2398
349.00	1.2398
349.07	1.2398
349.13	1.2401
349.20	1.2401
349.27	1.2401
349.33	1.2404
349.40	1.2404
349.47	1.2404
349.53	1.2407
349.60	1.2407
349.67	1.2404
349.73	1.2407
349.80	1.2407
349.87	1.2407
349.93	1.2410
350.00	1.2410
350.07	1.2410
350.13	1.2410
350.20	1.2413
350.27	1.2410
350.33	1.2410
350.40	1.2410
350.47	1.2410
350.53	1.2410
350.60	1.2410
350.67	1.2410
350.73	1.2410
350.80	1.2410
350.87	1.2407
350.93	1.2404
351.00	1.2407
351.07	1.2410
351.13	1.2413
351.20	1.2413
351.27	1.2419
351.33	1.2425
351.40	1.2425
351.47	1.2425
351.53	1.2429
351.60	1.2429
351.67	1.2425
351.73	1.2425
351.80	1.2422
351.87	1.2419
351.93	1.2416
352.00	1.2413
352.07	1.2410
352.13	1.2410
352.20	1.2407
352.27	1.2410
352.33	1.2407
352.40	1.2410
352.47	1.2410
352.53	1.2410
352.60	1.2410
352.67	1.2410
352.73	1.2407
352.80	1.2407
352.87	1.2404
352.93	1.2401
353.00	1.2401
353.07	1.2398
353.13	1.2398
353.20	1.2401
353.27	1.2401
353.33	1.2401
353.40	1.2401
353.47	1.2401
353.53	1.2401
353.60	1.2404
353.67	1.2404
353.73	1.2407
353.80	1.2413
353.87	1.2413
353.93	1.2419
354.00	1.2422
354.07	1.2429
354.13	1.2432
354.20	1.2438
354.27	1.2441
354.33	1.2444
354.40	1.2450
354.47	1.2453
354.53	1.2456
354.60	1.2456
354.67	1.2456
354.73	1.2456
354.80	1.2456
354.87	1.2453
354.93	1.2453
355.00	1.2453
355.07	1.2453
355.13	1.2456
355.20	1.2456
355.27	1.2459
355.33	1.2459
355.40	1.2463
355.47	1.2463
355.53	1.2466
355.60	1.2466
355.67	1.2469
355.73	1.2469
355.80	1.2472
355.87	1.2475
355.93	1.2475
356.00	1.2475
356.07	1.2475
356.13	1.2475
356.20	1.2475
356.27	1.2472
356.33	1.2469
356.40	1.2463
356.47	1.2456
356.53	1.2450
356.60	1.2441
356.67	1.2432
356.73	1.2419
356.80	1.2410
356.87	1.2401
356.93	1.2394
357.00	1.2385
357.07	1.2379
357.13	1.2370
357.20	1.2363
357.27	1.2357
357.33	1.2357
357.40	1.2351
357.47	1.2348
357.53	1.2348
357.60	1.2345
357.67	1.2342
357.73	1.2342
357.80	1.2339
357.87	1.2339
357.93	1.2336
358.00	1.2329
358.07	1.2329
358.13	1.2326
358.20	1.2323
358.27	1.2320
358.33	1.2323
358.40	1.2320
358.47	1.2317
358.53	1.2317
358.60	1.2314
358.67	1.2308
358.73	1.2305
358.80	1.2298
358.87	1.2289
358.93	1.2283
359.00	1.2274
359.07	1.2261
359.13	1.2255
359.20	1.2243
359.27	1.2237
359.33	1.2227
359.40	1.2221
359.47	1.2215
359.53	1.2206
359.60	1.2199
359.67	1.2193
359.73	1.2190
359.80	1.2184
359.87	1.2178
359.93	1.2175
360.00	1.2171
360.07	1.2165
360.13	1.2156
360.20	1.2150
360.27	1.2144
360.33	1.2137
360.40	1.2131
360.47	1.2125
360.53	1.2122
360.60	1.2116
360.67	1.2113
360.73	1.2110
360.80	1.2106
360.87	1.2103
360.93	1.2100
361.00	1.2097
361.07	1.2094
361.13	1.2094
361.20	1.2091
361.27	1.2088
361.33	1.2088
361.40	1.2085
361.47	1.2085
361.53	1.2085
361.60	1.2085
361.67	1.2082
361.73	1.2085
361.80	1.2079
361.87	1.2079
361.93	1.2075
362.00	1.2075
362.07	1.2069
362.13	1.2069
362.20	1.2069
362.27	1.2066
362.33	1.2069
362.40	1.2069
362.47	1.2069
362.53	1.2069
362.60	1.2069
362.67	1.2069
362.73	1.2069
362.80	1.2069
362.87	1.2066
362.93	1.2066
363.00	1.2060
363.07	1.2057
363.13	1.2054
363.20	1.2044
363.27	1.2038
363.33	1.2029
363.40	1.2023
363.47	1.2020
363.53	1.2010
363.60	1.2004
363.67	1.1998
363.73	1.1992
363.80	1.1983
363.87	1.1976
363.93	1.1967
364.00	1.1961
364.07	1.1958
364.13	1.1952
364.20	1.1948
364.27	1.1942
364.33	1.1939
364.40	1.1936
364.47	1.1930
364.53	1.1927
364.60	1.1924
364.67	1.1921
364.73	1.1921
364.80	1.1911
364.87	1.1908
364.93	1.1905
365.00	1.1899
365.07	1.1896
365.13	1.1893
365.20	1.1890
365.27	1.1880
365.33	1.1877
365.40	1.1874
365.47	1.1871
365.53	1.1868
365.60	1.1859
365.67	1.1852
365.73	1.1849
365.80	1.1840
365.87	1.1834
365.93	1.1825
366.00	1.1818
366.07	1.1812
366.13	1.1806
366.20	1.1797
366.27	1.1791
366.33	1.1781
366.40	1.1778
366.47	1.1772
366.53	1.1769
366.60	1.1766
366.67	1.1760
366.73	1.1756
366.80	1.1753
366.87	1.1747
366.93	1.1741
367.00	1.1735
367.07	1.1729
367.13	1.1722
367.20	1.1719
367.27	1.1707
367.33	1.1701
367.40	1.1695
367.47	1.1682
367.53	1.1676
367.60	1.1670
367.67	1.1660
367.73	1.1648
367.80	1.1642
367.87	1.1633
367.93	1.1626
368.00	1.1620
368.07	1.1614
368.13	1.1611
368.20	1.1605
368.27	1.1595
368.33	1.1589
368.40	1.1583
368.47	1.1580
368.53	1.1574
368.60	1.1568
368.67	1.1558
368.73	1.1552
368.80	1.1546
368.87	1.1537
368.93	1.1527
369.00	1.1521
369.07	1.1512
369.13	1.1506
369.20	1.1496
369.27	1.1490
369.33	1.1481
369.40	1.1472
369.47	1.1465
369.53	1.1456
369.60	1.1450
369.67	1.1444
369.73	1.1434
369.80	1.1428
369.87	1.1419
369.93	1.1413
370.00	1.1400
370.07	1.1391
370.13	1.1382
370.20	1.1376
370.27	1.1366
370.33	1.1357
370.40	1.1348
370.47	1.1335
370.53	1.1326
370.60	1.1314
370.67	1.1298
370.73	1.1289
370.80	1.1276
370.87	1.1264
370.93	1.1252
371.00	1.1239
371.07	1.1230
371.13	1.1218
371.20	1.1205
371.27	1.1196
371.33	1.1187
371.40	1.1177
371.47	1.1168
371.53	1.1159
371.60	1.1149
371.67	1.1143
371.73	1.1131
371.80	1.1125
371.87	1.1112
371.93	1.1103
372.00	1.1087
372.07	1.1078
372.13	1.1066
372.20	1.1050
372.27	1.1041
372.33	1.1029
372.40	1.1013
372.47	1.1001
372.53	1.0988
372.60	1.0973
372.67	1.0961
372.73	1.0945
372.80	1.0936
372.87	1.0920
372.93	1.0911
373.00	1.0895
373.07	1.0883
373.13	1.0874
373.20	1.0861
373.27	1.0849
373.33	1.0837
373.40	1.0827
373.47	1.0815
373.53	1.0803
373.60	1.0790
373.67	1.0781
373.73	1.0765
373.80	1.0756
373.87	1.0744
373.93	1.0731
374.00	1.0719
374.07	1.0710
374.13	1.0694
374.20	1.0679
374.27	1.0663
374.33	1.0648
374.40	1.0629
374.47	1.0611
374.53	1.0592
374.60	1.0573
374.67	1.0552
374.73	1.0533
374.80	1.0515
374.87	1.0493
374.93	1.0471
375.00	1.0450
375.07	1.0428
375.13	1.0409
375.20	1.0391
375.27	1.0369
375.33	1.0347
375.40	1.0326
375.47	1.0310
375.53	1.0288
375.60	1.0270
375.67	1.0251
375.73	1.0236
375.80	1.0217
375.87	1.0199
375.93	1.0177
376.00	1.0155
376.07	1.0134
376.13	1.0109
376.20	1.0084
376.27	1.0056
376.33	1.0028
376.40	0.9997
376.47	0.9969
376.53	0.9935
376.60	0.9908
376.67	0.9877
376.73	0.9849
376.80	0.9818
376.87	0.9787
376.93	0.9756
377.00	0.9725
377.07	0.9691
377.13	0.9663
377.20	0.9629
377.27	0.9598
377.33	0.9570
377.40	0.9536
377.47	0.9505
377.53	0.9474
377.60	0.9443
377.67	0.9412
377.73	0.9381
377.80	0.9347
377.87	0.9313
377.93	0.9276
378.00	0.9239
378.07	0.9201
378.13	0.9164
378.20	0.9124
378.27	0.9087
378.33	0.9047
378.40	0.9006
378.47	0.8966
378.53	0.8926
378.60	0.8889
378.67	0.8848
378.73	0.8811
378.80	0.8774
378.87	0.8734
378.93	0.8693
379.00	0.8653
379.07	0.8616
379.13	0.8573
379.20	0.8532
379.27	0.8492
379.33	0.8446
379.40	0.8399
379.47	0.8353
379.53	0.8306
379.60	0.8260
379.67	0.8207
379.73	0.8158
379.80	0.8105
379.87	0.8052
379.93	0.8000
380.00	0.7947
380.07	0.7894
380.13	0.7842
380.20	0.7792
380.27	0.7740
380.33	0.7687
380.40	0.7634
380.47	0.7585
380.53	0.7532
380.60	0.7476
380.67	0.7424
380.73	0.7371
380.80	0.7318
380.87	0.7266
380.93	0.7210
381.00	0.7151
381.07	0.7098
381.13	0.7037
381.20	0.6978
381.27	0.6919
381.33	0.6857
381.40	0.6795
381.47	0.6730
381.53	0.6668
381.60	0.6597
381.67	0.6532
381.73	0.6467
381.80	0.6395
381.87	0.6324
381.93	0.6253
382.00	0.6182
382.07	0.6111
382.13	0.6033
382.20	0.5956
382.27	0.5875
382.33	0.5798
382.40	0.5720
382.47	0.5637
382.53	0.5556
382.60	0.5473
382.67	0.5389
382.73	0.5302
382.80	0.5215
382.87	0.5129
382.93	0.5042
383.00	0.4952
383.07	0.4869
383.13	0.4779
383.20	0.4689
383.27	0.4599
383.33	0.4509
383.40	0.4413
383.47	0.4317
383.53	0.4221
383.60	0.4119
383.67	0.4020
383.73	0.3918
383.80	0.3816
383.87	0.3713
383.93	0.3608
384.00	0.3503
384.07	0.3394
384.13	0.3283
384.20	0.3174
384.27	0.3063
384.33	0.2948
384.40	0.2831
384.47	0.2713
384.53	0.2595
384.60	0.2478
384.67	0.2357
384.73	0.2236
384.80	0.2115
384.87	0.1988
384.93	0.1864
385.00	0.1737
385.07	0.1610
385.13	0.1477
385.20	0.1347
385.27	0.1220
385.33	0.1087
385.40	0.0957
385.47	0.0827
385.53	0.0691
385.60	0.0557
385.67	0.0421
385.73	0.0282
385.80	0.0146
385.87	6.1941e-004
385.93	-0.0133
386.00	-0.0279
386.07	-0.0424
386.13	-0.0570
386.20	-0.0719
386.27	-0.0873
386.33	-0.1025
386.40	-0.1177
386.47	-0.1335
386.53	-0.1490
386.60	-0.1648
386.67	-0.1806
386.73	-0.1967
386.80	-0.2128
386.87	-0.2286
386.93	-0.2453
387.00	-0.2617
387.07	-0.2784
387.13	-0.2952
387.20	-0.3122
387.27	-0.3295
387.33	-0.3472
387.40	-0.3648
387.47	-0.3828
387.53	-0.4008
387.60	-0.4190
387.67	-0.4373
387.73	-0.4559
387.80	-0.4745
387.87	-0.4931
387.93	-0.5119
388.00	-0.5305
388.07	-0.5491
388.13	-0.5680
388.20	-0.5869
388.27	-0.6058
388.33	-0.6247
388.40	-0.6442
388.47	-0.6634
388.53	-0.6829
388.60	-0.7027
388.67	-0.7222
388.73	-0.7421
388.80	-0.7619
388.87	-0.7820
388.93	-0.8021
389.00	-0.8223
389.07	-0.8427
389.13	-0.8628
389.20	-0.8836
389.27	-0.9043
389.33	-0.9251
389.40	-0.9465
389.47	-0.9672
389.53	-0.9883
389.60	-1.0100
389.67	-1.0313
389.73	-1.0530
389.80	-1.0747
389.87	-1.0964
389.93	-1.1187
390.00	-1.1410
390.07	-1.1636
390.13	-1.1862
390.20	-1.2091
390.27	-1.2326
390.33	-1.2559
390.40	-1.2794
390.47	-1.3032
390.53	-1.3271
390.60	-1.3516
390.67	-1.3757
390.73	-1.4002
390.80	-1.4250
390.87	-1.4497
390.93	-1.4748
391.00	-1.4999
391.07	-1.5256
391.13	-1.5513
391.20	-1.5773
391.27	-1.6034
391.33	-1.6297
391.40	-1.6560
391.47	-1.6826
391.53	-1.7090
391.60	-1.7356
391.67	-1.7619
391.73	-1.7886
391.80	-1.8152
391.87	-1.8421
391.93	-1.8691
392.00	-1.8966
392.07	-1.9239
392.13	-1.9515
392.20	-1.9790
392.27	-2.0069
392.33	-2.0354
392.40	-2.0633
392.47	-2.0918
392.53	-2.1203
392.60	-2.1487
392.67	-2.1782
392.73	-2.2070
392.80	-2.2364
392.87	-2.2658
392.93	-2.2955
393.00	-2.3256
393.07	-2.3559
393.13	-2.3863
393.20	-2.4166
393.27	-2.4473
393.33	-2.4783
393.40	-2.5092
393.47	-2.5402
393.53	-2.5712
393.60	-2.6025
393.67	-2.6341
393.73	-2.6656
393.80	-2.6969
393.87	-2.7288
393.93	-2.7610
394.00	-2.7926
394.07	-2.8245
394.13	-2.8567
394.20	-2.8889
394.27	-2.9215
394.33	-2.9543
394.40	-2.9871
394.47	-3.0203
394.53	-3.0537
394.60	-3.0872
394.67	-3.1212
394.73	-3.1553
394.80	-3.1900
394.87	-3.2244
394.93	-3.2594
395.00	-3.2947
395.07	-3.3303
395.13	-3.3659
395.20	-3.4021
395.27	-3.4384
395.33	-3.4749
395.40	-3.5118
395.47	-3.5492
395.53	-3.5867
395.60	-3.6242
395.67	-3.6623
395.73	-3.7004
395.80	-3.7388
395.87	-3.7772
395.93	-3.8159
396.00	-3.8546
396.07	-3.8939
396.13	-3.9330
396.20	-3.9729
396.27	-4.0126
396.33	-4.0528
396.40	-4.0928
396.47	-4.1337
396.53	-4.1745
396.60	-4.2154
396.67	-4.2572
396.73	-4.2990
396.80	-4.3408
396.87	-4.3836
396.93	-4.4260
397.00	-4.4691
397.07	-4.5124
397.13	-4.5558
397.20	-4.5995
397.27	-4.6434
397.33	-4.6883
397.40	-4.7332
397.47	-4.7785
397.53	-4.8240
397.60	-4.8698
397.67	-4.9160
397.73	-4.9621
397.80	-5.0086
397.87	-5.0557
397.93	-5.1027
398.00	-5.1501
398.07	-5.1978
398.13	-5.2458
398.20	-5.2941
398.27	-5.3431
398.33	-5.3920
398.40	-5.4412
398.47	-5.4914
398.53	-5.5413
398.60	-5.5921
398.67	-5.6432
398.73	-5.6946
398.80	-5.7469
398.87	-5.7989
398.93	-5.8519
399.00	-5.9049
399.07	-5.9584
399.13	-6.0123
399.20	-6.0665
399.27	-6.1217
399.33	-6.1768
399.40	-6.2322
399.47	-6.2883
399.53	-6.3450
399.60	-6.4016
399.67	-6.4589
399.73	-6.5165
399.80	-6.5748
399.87	-6.6336
399.93	-6.6928
400.00	-6.7525
400.07	-6.8126
400.13	-6.8730
400.20	-6.9340
400.27	-6.9953
400.33	-7.0573
400.40	-7.1195
400.47	-7.1824
400.53	-7.2456
400.60	-7.3094
400.67	-7.3732
400.73	-7.4379
400.80	-7.5030
400.87	-7.5683
400.93	-7.6343
401.00	-7.7009
401.07	-7.7681
401.13	-7.8356
401.20	-7.9037
401.27	-7.9718
401.33	-8.0409
401.40	-8.1097
401.47	-8.1794
401.53	-8.2493
401.60	-8.3196
401.67	-8.3906
401.73	-8.4621
401.80	-8.5340
401.87	-8.6061
401.93	-8.6786
402.00	-8.7517
402.07	-8.8251
402.13	-8.8988
402.20	-8.9731
402.27	-9.0478
402.33	-9.1227
402.40	-9.1977
402.47	-9.2735
402.53	-9.3497
402.60	-9.4262
402.67	-9.5033
402.73	-9.5808
402.80	-9.6588
402.87	-9.7369
402.93	-9.8158
403.00	-9.8945
403.07	-9.9741
403.13	-10.0534
403.20	-10.1336
403.27	-10.2141
403.33	-10.2943
403.40	-10.3755
403.47	-10.4566
403.53	-10.5378
403.60	-10.6192
403.67	-10.7010
403.73	-10.7827
403.80	-10.8645
403.87	-10.9469
403.93	-11.0296
404.00	-11.1123
404.07	-11.1953
404.13	-11.2783
404.20	-11.3619
404.27	-11.4449
404.33	-11.5279
404.40	-11.6112
404.47	-11.6948
404.53	-11.7778
404.60	-11.8605
404.67	-11.9432
404.73	-12.0259
404.80	-12.1083
404.87	-12.1904
404.93	-12.2724
405.00	-12.3536
405.07	-12.4344
405.13	-12.5143
405.20	-12.5942
405.27	-12.6732
405.33	-12.7522
405.40	-12.8302
405.47	-12.9073
405.53	-12.9841
405.60	-13.0603
405.67	-13.1356
405.73	-13.2102
405.80	-13.2836
405.87	-13.3564
405.93	-13.4279
406.00	-13.4986
406.07	-13.5682
406.13	-13.6367
406.20	-13.7045
406.27	-13.7708
406.33	-13.8361
406.40	-13.9006
406.47	-13.9634
406.53	-14.0257
406.60	-14.0861
406.67	-14.1455
406.73	-14.2035
406.80	-14.2608
406.87	-14.3168
406.93	-14.3719
407.00	-14.4261
407.07	-14.4791
407.13	-14.5302
407.20	-14.5804
407.27	-14.6287
407.33	-14.6754
407.40	-14.7207
407.47	-14.7643
407.53	-14.8065
407.60	-14.8464
407.67	-14.8854
407.73	-14.9229
407.80	-14.9588
407.87	-14.9932
407.93	-15.0260
408.00	-15.0573
408.07	-15.0874
408.13	-15.1162
408.20	-15.1440
408.27	-15.1704
408.33	-15.1958
408.40	-15.2199
408.47	-15.2425
408.53	-15.2645
408.60	-15.2853
408.67	-15.3048
408.73	-15.3227
408.80	-15.3398
408.87	-15.3556
408.93	-15.3698
409.00	-15.3825
409.07	-15.3940
409.13	-15.4042
409.20	-15.4129
409.27	-15.4200
409.33	-15.4259
409.40	-15.4296
409.47	-15.4321
409.53	-15.4324
409.60	-15.4308
409.67	-15.4271
409.73	-15.4209
409.80	-15.4122
409.87	-15.4008
409.93	-15.3865
410.00	-15.3695
410.07	-15.3491
410.13	-15.3261
410.20	-15.2995
410.27	-15.2701
410.33	-15.2376
410.40	-15.2019
410.47	-15.1635
410.53	-15.1224
410.60	-15.0781
410.67	-15.0316
410.73	-14.9824
410.80	-14.9306
410.87	-14.8771
410.93	-14.8213
411.00	-14.7637
411.07	-14.7046
411.13	-14.6435
411.20	-14.5819
411.27	-14.5187
411.33	-14.4556
411.40	-14.3918
411.47	-14.3283
411.53	-14.2642
411.60	-14.2010
411.67	-14.1384
411.73	-14.0762
411.80	-14.0145
411.87	-13.9545
411.93	-13.8950
412.00	-13.8368
412.07	-13.7801
412.13	-13.7250
412.20	-13.6711
412.27	-13.6187
412.33	-13.5682
412.40	-13.5196
412.47	-13.4729
412.53	-13.4276
412.60	-13.3843
412.67	-13.3431
412.73	-13.3041
412.80	-13.2669
412.87	-13.2325
412.93	-13.2003
413.00	-13.1703
413.07	-13.1427
413.13	-13.1176
413.20	-13.0944
413.27	-13.0736
413.33	-13.0548
413.40	-13.0380
413.47	-13.0235
413.53	-13.0102
413.60	-12.9987
413.67	-12.9882
413.73	-12.9792
413.80	-12.9711
413.87	-12.9649
413.93	-12.9591
414.00	-12.9544
414.07	-12.9507
414.13	-12.9476
414.20	-12.9451
414.27	-12.9429
414.33	-12.9408
414.40	-12.9395
414.47	-12.9377
414.53	-12.9361
414.60	-12.9343
414.67	-12.9315
414.73	-12.9287
414.80	-12.9253
414.87	-12.9207
414.93	-12.9154
415.00	-12.9086
415.07	-12.9005
415.13	-12.8903
415.20	-12.8788
415.27	-12.8649
415.33	-12.8488
415.40	-12.8305
415.47	-12.8092
415.53	-12.7847
415.60	-12.7571
415.67	-12.7258
415.73	-12.6902
415.80	-12.6509
415.87	-12.6066
415.93	-12.5577
416.00	-12.5035
416.07	-12.4443
416.13	-12.3790
416.20	-12.3074
416.27	-12.2294
416.33	-12.1445
416.40	-12.0522
416.47	-11.9531
416.53	-11.8460
416.60	-11.7311
416.67	-11.6081
416.73	-11.4765
416.80	-11.3365
416.87	-11.1878
416.93	-11.0305
417.00	-10.8648
417.07	-10.6908
417.13	-10.5083
417.20	-10.3179
417.27	-10.1194
417.33	-9.9131
417.40	-9.6997
417.47	-9.4795
417.53	-9.2531
417.60	-9.0211
417.67	-8.7833
417.73	-8.5411
417.80	-8.2949
417.87	-8.0452
417.93	-7.7925
418.00	-7.5376
418.07	-7.2806
418.13	-7.0226
418.20	-6.7640
418.27	-6.5051
418.33	-6.2471
418.40	-5.9894
418.47	-5.7339
418.53	-5.4796
418.60	-5.2278
418.67	-4.9792
418.73	-4.7339
418.80	-4.4929
418.87	-4.2566
418.93	-4.0256
419.00	-3.7998
419.07	-3.5805
419.13	-3.3681
419.20	-3.1630
419.27	-2.9658
419.33	-2.7759
419.40	-2.5947
419.47	-2.4222
419.53	-2.2581
419.60	-2.1032
419.67	-1.9564
419.73	-1.8189
419.80	-1.6898
419.87	-1.5690
419.93	-1.4572
420.00	-1.3525
420.07	-1.2559
420.13	-1.1664
420.20	-1.0840
420.27	-1.0078
420.33	-0.9378
420.40	-0.8737
420.47	-0.8151
420.53	-0.7613
420.60	-0.7123
420.67	-0.6674
420.73	-0.6268
420.80	-0.5897
420.87	-0.5559
420.93	-0.5253
421.00	-0.4974
421.07	-0.4723
421.13	-0.4494
421.20	-0.4283
421.27	-0.4097
421.33	-0.3924
421.40	-0.3769
421.47	-0.3627
421.53	-0.3500
421.60	-0.3382
421.67	-0.3274
421.73	-0.3178
421.80	-0.3085
421.87	-0.3004
421.93	-0.2930
422.00	-0.2862
422.07	-0.2800
422.13	-0.2744
422.20	-0.2691
422.27	-0.2645
422.33	-0.2602
422.40	-0.2567
422.47	-0.2533
422.53	-0.2499
422.60	-0.2471
422.67	-0.2447
422.73	-0.2425
422.80	-0.2400
422.87	-0.2382
422.93	-0.2366
423.00	-0.2348
423.07	-0.2335
423.13	-0.2320
423.20	-0.2307
423.27	-0.2295
423.33	-0.2286
423.40	-0.2276
423.47	-0.2267
423.53	-0.2261
423.60	-0.2252
423.67	-0.2242
423.73	-0.2239
423.80	-0.2233
423.87	-0.2230
423.93	-0.2227
424.00	-0.2224
424.07	-0.2227
424.13	-0.2227
424.20	-0.2227
424.27	-0.2230
424.33	-0.2233
424.40	-0.2236
424.47	-0.2239
424.53	-0.2248
424.60	-0.2255
424.67	-0.2261
424.73	-0.2270
424.80	-0.2276
424.87	-0.2283
424.93	-0.2292
425.00	-0.2298
425.07	-0.2310
425.13	-0.2320
425.20	-0.2326
425.27	-0.2338
425.33	-0.2351
425.40	-0.2363
425.47	-0.2375
425.53	-0.2391
425.60	-0.2403
425.67	-0.2419
425.73	-0.2431
425.80	-0.2450
425.87	-0.2462
425.93	-0.2481
426.00	-0.2493
426.07	-0.2512
426.13	-0.2527
426.20	-0.2546
426.27	-0.2564
426.33	-0.2583
426.40	-0.2605
426.47	-0.2623
426.53	-0.2645
426.60	-0.2667
426.67	-0.2691
426.73	-0.2716
426.80	-0.2741
426.87	-0.2763
426.93	-0.2787
427.00	-0.2809
427.07	-0.2834
427.13	-0.2862
427.20	-0.2890
427.27	-0.2917
427.33	-0.2945
427.40	-0.2973
427.47	-0.3004
427.53	-0.3035
427.60	-0.3066
427.67	-0.3097
427.73	-0.3128
427.80	-0.3159
427.87	-0.3193
427.93	-0.3221
428.00	-0.3252
428.07	-0.3283
428.13	-0.3314
428.20	-0.3342
428.27	-0.3373
428.33	-0.3404
428.40	-0.3432
428.47	-0.3463
428.53	-0.3493
428.60	-0.3528
428.67	-0.3559
428.73	-0.3593
428.80	-0.3627
428.87	-0.3664
428.93	-0.3701
429.00	-0.3738
429.07	-0.3775
429.13	-0.3816
429.20	-0.3856
429.27	-0.3896
429.33	-0.3939
429.40	-0.3983
429.47	-0.4029
429.53	-0.4073
429.60	-0.4119
429.67	-0.4166
429.73	-0.4212
429.80	-0.4258
429.87	-0.4311
429.93	-0.4361
430.00	-0.4407
430.07	-0.4457
430.13	-0.4512
430.20	-0.4562
430.27	-0.4618
430.33	-0.4673
430.40	-0.4732
430.47	-0.4791
430.53	-0.4847
430.60	-0.4906
430.67	-0.4965
430.73	-0.5023
430.80	-0.5082
430.87	-0.5144
430.93	-0.5203
431.00	-0.5265
431.07	-0.5327
431.13	-0.5386
431.20	-0.5448
431.27	-0.5510
431.33	-0.5575
431.40	-0.5637
431.47	-0.5699
431.53	-0.5761
431.60	-0.5822
431.67	-0.5888
431.73	-0.5953
431.80	-0.6024
431.87	-0.6089
431.93	-0.6163
432.00	-0.6231
432.07	-0.6306
432.13	-0.6374
432.20	-0.6448
432.27	-0.6522
432.33	-0.6600
432.40	-0.6677
432.47	-0.6752
432.53	-0.6826
432.60	-0.6903
432.67	-0.6981
432.73	-0.7058
432.80	-0.7139
432.87	-0.7219
432.93	-0.7297
433.00	-0.7380
433.07	-0.7461
433.13	-0.7541
433.20	-0.7622
433.27	-0.7706
433.33	-0.7789
433.40	-0.7873
433.47	-0.7956
433.53	-0.8046
433.60	-0.8130
433.67	-0.8217
433.73	-0.8303
433.80	-0.8393
433.87	-0.8483
433.93	-0.8573
434.00	-0.8662
434.07	-0.8752
434.13	-0.8842
434.20	-0.8935
434.27	-0.9028
434.33	-0.9121
434.40	-0.9214
434.47	-0.9310
434.53	-0.9403
434.60	-0.9496
434.67	-0.9592
434.73	-0.9688
434.80	-0.9781
434.87	-0.9880
434.93	-0.9979
435.00	-1.0075
435.07	-1.0174
435.13	-1.0276
435.20	-1.0375
435.27	-1.0480
435.33	-1.0583
435.40	-1.0685
435.47	-1.0793
435.53	-1.0902
435.60	-1.1007
435.67	-1.1115
435.73	-1.1224
435.80	-1.1332
435.87	-1.1441
435.93	-1.1552
436.00	-1.1660
436.07	-1.1769
436.13	-1.1880
436.20	-1.1995
436.27	-1.2106
436.33	-1.2221
436.40	-1.2336
436.47	-1.2447
436.53	-1.2562
436.60	-1.2676
436.67	-1.2791
436.73	-1.2909
436.80	-1.3020
436.87	-1.3138
436.93	-1.3255
437.00	-1.3373
437.07	-1.3491
437.13	-1.3605
437.20	-1.3726
437.27	-1.3844
437.33	-1.3968
437.40	-1.4085
437.47	-1.4209
437.53	-1.4327
437.60	-1.4451
437.67	-1.4575
437.73	-1.4696
437.80	-1.4819
437.87	-1.4943
437.93	-1.5067
438.00	-1.5188
438.07	-1.5315
438.13	-1.5442
438.20	-1.5566
438.27	-1.5693
438.33	-1.5820
438.40	-1.5947
438.47	-1.6071
438.53	-1.6198
438.60	-1.6325
438.67	-1.6449
438.73	-1.6575
438.80	-1.6699
438.87	-1.6826
438.93	-1.6950
439.00	-1.7077
439.07	-1.7201
439.13	-1.7325
439.20	-1.7449
439.27	-1.7570
439.33	-1.7697
439.40	-1.7821
439.47	-1.7951
439.53	-1.8074
439.60	-1.8201
439.67	-1.8328
439.73	-1.8459
439.80	-1.8585
439.87	-1.8712
439.93	-1.8843
440.00	-1.8970
440.07	-1.9097
440.13	-1.9223
440.20	-1.9354
440.27	-1.9484
440.33	-1.9611
440.40	-1.9738
440.47	-1.9865
440.53	-1.9992
440.60	-2.0119
440.67	-2.0246
440.73	-2.0373
440.80	-2.0499
440.87	-2.0623
440.93	-2.0753
441.00	-2.0880
441.07	-2.1004
441.13	-2.1131
441.20	-2.1255
441.27	-2.1379
441.33	-2.1506
441.40	-2.1633
441.47	-2.1757
441.53	-2.1875
441.60	-2.1998
441.67	-2.2119
441.73	-2.2243
441.80	-2.2367
441.87	-2.2488
441.93	-2.2609
442.00	-2.2732
442.07	-2.2853
442.13	-2.2974
442.20	-2.3098
442.27	-2.3216
442.33	-2.3336
442.40	-2.3460
442.47	-2.3581
442.53	-2.3702
442.60	-2.3823
442.67	-2.3940
442.73	-2.4058
442.80	-2.4176
442.87	-2.4296
442.93	-2.4414
443.00	-2.4532
443.07	-2.4646
443.13	-2.4755
443.20	-2.4866
443.27	-2.4978
443.33	-2.5089
443.40	-2.5192
443.47	-2.5300
443.53	-2.5402
443.60	-2.5501
443.67	-2.5603
443.73	-2.5706
443.80	-2.5805
443.87	-2.5904
443.93	-2.6003
444.00	-2.6099
444.07	-2.6198
444.13	-2.6297
444.20	-2.6390
444.27	-2.6483
444.33	-2.6573
444.40	-2.6666
444.47	-2.6756
444.53	-2.6845
444.60	-2.6932
444.67	-2.7016
444.73	-2.7102
444.80	-2.7186
444.87	-2.7267
444.93	-2.7347
445.00	-2.7425
445.07	-2.7502
445.13	-2.7579
445.20	-2.7654
445.27	-2.7728
445.33	-2.7802
445.40	-2.7874
445.47	-2.7945
445.53	-2.8013
445.60	-2.8075
445.67	-2.8140
445.73	-2.8202
445.80	-2.8261
445.87	-2.8320
445.93	-2.8375
446.00	-2.8431
446.07	-2.8484
446.13	-2.8536
446.20	-2.8586
446.27	-2.8632
446.33	-2.8682
446.40	-2.8725
446.47	-2.8769
446.53	-2.8812
446.60	-2.8855
446.67	-2.8893
446.73	-2.8933
446.80	-2.8970
446.87	-2.9007
446.93	-2.9044
447.00	-2.9075
447.07	-2.9106
447.13	-2.9131
447.20	-2.9156
447.27	-2.9181
447.33	-2.9196
447.40	-2.9212
447.47	-2.9224
447.53	-2.9233
447.60	-2.9242
447.67	-2.9249
447.73	-2.9255
447.80	-2.9255
447.87	-2.9252
447.93	-2.9249
448.00	-2.9242
448.07	-2.9233
448.13	-2.9224
448.20	-2.9215
448.27	-2.9202
448.33	-2.9190
448.40	-2.9177
448.47	-2.9159
448.53	-2.9140
448.60	-2.9122
448.67	-2.9100
448.73	-2.9072
448.80	-2.9047
448.87	-2.9020
448.93	-2.8992
449.00	-2.8961
449.07	-2.8930
449.13	-2.8899
449.20	-2.8862
449.27	-2.8831
449.33	-2.8790
449.40	-2.8750
449.47	-2.8707
449.53	-2.8663
449.60	-2.8614
449.67	-2.8564
449.73	-2.8512
449.80	-2.8459
449.87	-2.8406
449.93	-2.8351
450.00	-2.8292
450.07	-2.8233
450.13	-2.8174
450.20	-2.8112
450.27	-2.8050
450.33	-2.7988
450.40	-2.7923
450.47	-2.7852
450.53	-2.7784
450.60	-2.7706
450.67	-2.7632
450.73	-2.7552
450.80	-2.7468
450.87	-2.7384
450.93	-2.7301
451.00	-2.7214
451.07	-2.7127
451.13	-2.7040
451.20	-2.6951
451.27	-2.6861
451.33	-2.6768
451.40	-2.6675
451.47	-2.6579
451.53	-2.6486
451.60	-2.6387
451.67	-2.6291
451.73	-2.6195
451.80	-2.6096
451.87	-2.5997
451.93	-2.5898
452.00	-2.5795
452.07	-2.5684
452.13	-2.5551
452.20	-2.5393
452.27	-2.5213
452.33	-2.5015
452.40	-2.4807
452.47	-2.4597
452.53	-2.4396
452.60	-2.4207
452.67	-2.4030
452.73	-2.3869
452.80	-2.3727
452.87	-2.3597
452.93	-2.3479
453.00	-2.3370
453.07	-2.3274
453.13	-2.3178
453.20	-2.3092
453.27	-2.3002
453.33	-2.2918
453.40	-2.2835
453.47	-2.2748
453.53	-2.2661
453.60	-2.2568
453.67	-2.2475
453.73	-2.2376
453.80	-2.2277
453.87	-2.2175
453.93	-2.2067
454.00	-2.1961
454.07	-2.1850
454.13	-2.1738
454.20	-2.1621
454.27	-2.1503
454.33	-2.1379
454.40	-2.1255
454.47	-2.1128
454.53	-2.1001
454.60	-2.0871
454.67	-2.0738
454.73	-2.0608
454.80	-2.0475
454.87	-2.0342
454.93	-2.0208
455.00	-2.0072
455.07	-1.9936
455.13	-1.9800
455.20	-1.9669
455.27	-1.9533
455.33	-1.9400
455.40	-1.9264
455.47	-1.9127
455.53	-1.8997
455.60	-1.8864
455.67	-1.8725
455.73	-1.8592
455.80	-1.8459
455.87	-1.8319
455.93	-1.8186
456.00	-1.8053
456.07	-1.7917
456.13	-1.7786
456.20	-1.7653
456.27	-1.7520
456.33	-1.7384
456.40	-1.7254
456.47	-1.7121
456.53	-1.6984
456.60	-1.6854
456.67	-1.6721
456.73	-1.6591
456.80	-1.6458
456.87	-1.6328
456.93	-1.6198
457.00	-1.6068
457.07	-1.5944
457.13	-1.5814
457.20	-1.5687
457.27	-1.5557
457.33	-1.5430
457.40	-1.5300
457.47	-1.5169
457.53	-1.5039
457.60	-1.4909
457.67	-1.4782
457.73	-1.4655
457.80	-1.4528
457.87	-1.4404
457.93	-1.4281
458.00	-1.4160
458.07	-1.4036
458.13	-1.3915
458.20	-1.3797
458.27	-1.3677
458.33	-1.3562
458.40	-1.3444
458.47	-1.3333
458.53	-1.3218
458.60	-1.3107
458.67	-1.2992
458.73	-1.2884
458.80	-1.2772
458.87	-1.2661
458.93	-1.2552
459.00	-1.2447
459.07	-1.2342
459.13	-1.2233
459.20	-1.2128
459.27	-1.2023
459.33	-1.1921
459.40	-1.1818
459.47	-1.1716
459.53	-1.1611
459.60	-1.1512
459.67	-1.1410
459.73	-1.1307
459.80	-1.1208
459.87	-1.1109
459.93	-1.1007
460.00	-1.0911
460.07	-1.0812
460.13	-1.0710
460.20	-1.0611
460.27	-1.0511
460.33	-1.0412
460.40	-1.0316
460.47	-1.0223
460.53	-1.0124
460.60	-1.0031
460.67	-0.9932
460.73	-0.9839
460.80	-0.9746
460.87	-0.9650
460.93	-0.9558
461.00	-0.9465
461.07	-0.9375
461.13	-0.9282
461.20	-0.9192
461.27	-0.9102
461.33	-0.9016
461.40	-0.8926
461.47	-0.8842
461.53	-0.8755
461.60	-0.8669
461.67	-0.8582
461.73	-0.8498
461.80	-0.8415
461.87	-0.8331
461.93	-0.8254
462.00	-0.8173
462.07	-0.8093
462.13	-0.8018
462.20	-0.7944
462.27	-0.7873
462.33	-0.7802
462.40	-0.7730
462.47	-0.7659
462.53	-0.7588
462.60	-0.7523
462.67	-0.7455
462.73	-0.7387
462.80	-0.7321
462.87	-0.7256
462.93	-0.7191
463.00	-0.7126
463.07	-0.7061
463.13	-0.6996
463.20	-0.6931
463.27	-0.6869
463.33	-0.6807
463.40	-0.6745
463.47	-0.6683
463.53	-0.6622
463.60	-0.6560
463.67	-0.6501
463.73	-0.6439
463.80	-0.6383
463.87	-0.6324
463.93	-0.6265
464.00	-0.6203
464.07	-0.6145
464.13	-0.6083
464.20	-0.6021
464.27	-0.5965
464.33	-0.5903
464.40	-0.5844
464.47	-0.5785
464.53	-0.5730
464.60	-0.5671
464.67	-0.5615
464.73	-0.5556
464.80	-0.5503
464.87	-0.5451
464.93	-0.5395
465.00	-0.5346
465.07	-0.5293
465.13	-0.5246
465.20	-0.5200
465.27	-0.5150
465.33	-0.5104
465.40	-0.5061
465.47	-0.5020
465.53	-0.4977
465.60	-0.4937
465.67	-0.4890
465.73	-0.4850
465.80	-0.4810
465.87	-0.4769
465.93	-0.4729
466.00	-0.4686
466.07	-0.4649
466.13	-0.4612
466.20	-0.4568
466.27	-0.4531
466.33	-0.4494
466.40	-0.4454
466.47	-0.4420
466.53	-0.4382
466.60	-0.4351
466.67	-0.4317
466.73	-0.4283
466.80	-0.4252
466.87	-0.4221
466.93	-0.4187
467.00	-0.4156
467.07	-0.4128
467.13	-0.4094
467.20	-0.4066
467.27	-0.4035
467.33	-0.4008
467.40	-0.3980
467.47	-0.3949
467.53	-0.3921
467.60	-0.3896
467.67	-0.3865
467.73	-0.3834
467.80	-0.3809
467.87	-0.3782
467.93	-0.3751
468.00	-0.3720
468.07	-0.3692
468.13	-0.3664
468.20	-0.3636
468.27	-0.3608
468.33	-0.3580
468.40	-0.3552
468.47	-0.3524
468.53	-0.3497
468.60	-0.3466
468.67	-0.3438
468.73	-0.3413
468.80	-0.3388
468.87	-0.3367
468.93	-0.3342
469.00	-0.3320
469.07	-0.3298
469.13	-0.3277
469.20	-0.3252
469.27	-0.3230
469.33	-0.3212
469.40	-0.3187
469.47	-0.3168
469.53	-0.3150
469.60	-0.3128
469.67	-0.3109
469.73	-0.3088
469.80	-0.3066
469.87	-0.3044
469.93	-0.3026
470.00	-0.3001
470.07	-0.2982
470.13	-0.2958
470.20	-0.2936
470.27	-0.2914
470.33	-0.2890
470.40	-0.2865
470.47	-0.2846
470.53	-0.2821
470.60	-0.2800
470.67	-0.2781
470.73	-0.2756
470.80	-0.2738
470.87	-0.2716
470.93	-0.2694
471.00	-0.2676
471.07	-0.2657
471.13	-0.2636
471.20	-0.2620
471.27	-0.2598
471.33	-0.2577
471.40	-0.2555
471.47	-0.2533
471.53	-0.2509
471.60	-0.2484
471.67	-0.2456
471.73	-0.2431
471.80	-0.2410
471.87	-0.2382
471.93	-0.2360
472.00	-0.2338
472.07	-0.2320
472.13	-0.2298
472.20	-0.2279
472.27	-0.2264
472.33	-0.2245
472.40	-0.2230
472.47	-0.2214
472.53	-0.2199
472.60	-0.2180
472.67	-0.2165
472.73	-0.2149
472.80	-0.2134
472.87	-0.2115
472.93	-0.2100
473.00	-0.2078
473.07	-0.2063
473.13	-0.2044
473.20	-0.2025
473.27	-0.2010
473.33	-0.1995
473.40	-0.1976
473.47	-0.1964
473.53	-0.1945
473.60	-0.1933
473.67	-0.1914
473.73	-0.1902
473.80	-0.1886
473.87	-0.1871
473.93	-0.1855
474.00	-0.1840
474.07	-0.1827
474.13	-0.1815
474.20	-0.1802
474.27	-0.1787
474.33	-0.1775
474.40	-0.1762
474.47	-0.1753
474.53	-0.1744
474.60	-0.1734
474.67	-0.1725
474.73	-0.1719
474.80	-0.1710
474.87	-0.1700
474.93	-0.1694
475.00	-0.1685
475.07	-0.1672
475.13	-0.1660
475.20	-0.1648
475.27	-0.1635
475.33	-0.1626
475.40	-0.1614
475.47	-0.1598
475.53	-0.1589
475.60	-0.1576
475.67	-0.1567
475.73	-0.1558
475.80	-0.1545
475.87	-0.1539
475.93	-0.1527
476.00	-0.1518
476.07	-0.1508
476.13	-0.1499
476.20	-0.1487
476.27	-0.1480
476.33	-0.1468
476.40	-0.1459
476.47	-0.1446
476.53	-0.1437
476.60	-0.1425
476.67	-0.1415
476.73	-0.1403
476.80	-0.1391
476.87	-0.1378
476.93	-0.1366
477.00	-0.1357
477.07	-0.1344
477.13	-0.1329
477.20	-0.1316
477.27	-0.1301
477.33	-0.1288
477.40	-0.1276
477.47	-0.1267
477.53	-0.1254
477.60	-0.1245
477.67	-0.1236
477.73	-0.1226
477.80	-0.1214
477.87	-0.1205
477.93	-0.1195
478.00	-0.1186
478.07	-0.1174
478.13	-0.1164
478.20	-0.1152
478.27	-0.1146
478.33	-0.1134
478.40	-0.1121
478.47	-0.1115
478.53	-0.1103
478.60	-0.1093
478.67	-0.1087
478.73	-0.1081
478.80	-0.1075
478.87	-0.1068
478.93	-0.1059
479.00	-0.1056
479.07	-0.1050
479.13	-0.1050
479.20	-0.1047
479.27	-0.1044
479.33	-0.1044
479.40	-0.1044
479.47	-0.1044
479.53	-0.1041
479.60	-0.1038
479.67	-0.1034
479.73	-0.1028
479.80	-0.1028
479.87	-0.1022
479.93	-0.1019
480.00	-0.1010
480.07	-0.1007
480.13	-0.0997
480.20	-0.0988
480.27	-0.0979
480.33	-0.0969
480.40	-0.0963
480.47	-0.0954
480.53	-0.0942
480.60	-0.0932
480.67	-0.0926
480.73	-0.0914
480.80	-0.0907
480.87	-0.0895
480.93	-0.0889
481.00	-0.0883
481.07	-0.0873
481.13	-0.0867
481.20	-0.0855
481.27	-0.0845
481.33	-0.0836
481.40	-0.0824
481.47	-0.0815
481.53	-0.0802
481.60	-0.0793
481.67	-0.0784
481.73	-0.0774
481.80	-0.0765
481.87	-0.0753
481.93	-0.0743
482.00	-0.0734
482.07	-0.0725
482.13	-0.0719
482.20	-0.0712
482.27	-0.0706
482.33	-0.0703
482.40	-0.0697
482.47	-0.0694
482.53	-0.0691
482.60	-0.0688
482.67	-0.0688
482.73	-0.0688
482.80	-0.0684
482.87	-0.0688
482.93	-0.0684
483.00	-0.0688
483.07	-0.0684
483.13	-0.0684
483.20	-0.0681
483.27	-0.0678
483.33	-0.0675
483.40	-0.0669
483.47	-0.0666
483.53	-0.0660
483.60	-0.0657
483.67	-0.0650
483.73	-0.0644
483.80	-0.0638
483.87	-0.0632
483.93	-0.0626
484.00	-0.0623
484.07	-0.0616
484.13	-0.0607
484.20	-0.0601
484.27	-0.0595
484.33	-0.0588
484.40	-0.0582
484.47	-0.0582
484.53	-0.0576
484.60	-0.0576
484.67	-0.0573
484.73	-0.0567
484.80	-0.0567
484.87	-0.0567
484.93	-0.0567
485.00	-0.0570
485.07	-0.0570
485.13	-0.0573
485.20	-0.0573
485.27	-0.0573
485.33	-0.0570
485.40	-0.0567
485.47	-0.0564
485.53	-0.0557
485.60	-0.0554
485.67	-0.0554
485.73	-0.0551
485.80	-0.0548
485.87	-0.0548
485.93	-0.0545
486.00	-0.0548
486.07	-0.0551
486.13	-0.0551
486.20	-0.0551
486.27	-0.0554
486.33	-0.0551
486.40	-0.0551
486.47	-0.0551
486.53	-0.0551
486.60	-0.0551
486.67	-0.0545
486.73	-0.0545
486.80	-0.0542
486.87	-0.0536
486.93	-0.0533
487.00	-0.0523
487.07	-0.0520
487.13	-0.0514
487.20	-0.0508
487.27	-0.0505
487.33	-0.0499
487.40	-0.0496
487.47	-0.0489
487.53	-0.0486
487.60	-0.0483
487.67	-0.0477
487.73	-0.0474
487.80	-0.0471
487.87	-0.0471
487.93	-0.0468
488.00	-0.0461
488.07	-0.0458
488.13	-0.0458
488.20	-0.0458
488.27	-0.0455
488.33	-0.0455
488.40	-0.0455
488.47	-0.0455
488.53	-0.0452
488.60	-0.0449
488.67	-0.0449
488.73	-0.0446
488.80	-0.0443
488.87	-0.0443
488.93	-0.0437
489.00	-0.0437
489.07	-0.0434
489.13	-0.0430
489.20	-0.0424
489.27	-0.0421
489.33	-0.0415
489.40	-0.0412
489.47	-0.0403
489.53	-0.0400
489.60	-0.0393
489.67	-0.0387
489.73	-0.0381
489.80	-0.0375
489.87	-0.0369
489.93	-0.0365
490.00	-0.0362
490.07	-0.0359
490.13	-0.0353
490.20	-0.0350
490.27	-0.0347
490.33	-0.0338
490.40	-0.0334
490.47	-0.0325
490.53	-0.0319
490.60	-0.0316
490.67	-0.0313
490.73	-0.0310
490.80	-0.0304
490.87	-0.0300
490.93	-0.0294
491.00	-0.0291
491.07	-0.0288
491.13	-0.0282
491.20	-0.0282
491.27	-0.0276
491.33	-0.0273
491.40	-0.0269
491.47	-0.0266
491.53	-0.0263
491.60	-0.0260
491.67	-0.0257
491.73	-0.0254
491.80	-0.0251
491.87	-0.0248
491.93	-0.0248
492.00	-0.0242
492.07	-0.0238
492.13	-0.0235
492.20	-0.0232
492.27	-0.0229
492.33	-0.0226
492.40	-0.0220
492.47	-0.0217
492.53	-0.0214
492.60	-0.0208
492.67	-0.0201
492.73	-0.0198
492.80	-0.0192
492.87	-0.0186
492.93	-0.0180
493.00	-0.0177
493.07	-0.0167
493.13	-0.0164
493.20	-0.0155
493.27	-0.0149
493.33	-0.0146
493.40	-0.0139
493.47	-0.0133
493.53	-0.0130
493.60	-0.0124
493.67	-0.0118
493.73	-0.0115
493.80	-0.0111
493.87	-0.0102
493.93	-0.0099
494.00	-0.0090
494.07	-0.0084
494.13	-0.0074
494.20	-0.0065
494.27	-0.0059
494.33	-0.0050
494.40	-0.0040
494.47	-0.0031
494.53	-0.0025
494.60	-0.0012
494.67	-3.0971e-004
494.73	6.1941e-004
494.80	0.0015
494.87	0.0028
494.93	0.0037
495.00	0.0046
495.07	0.0056
495.13	0.0062
495.20	0.0071
495.27	0.0077
495.33	0.0084
495.40	0.0093
495.47	0.0099
495.53	0.0105
495.60	0.0108
495.67	0.0118
495.73	0.0121
495.80	0.0127
495.87	0.0130
495.93	0.0133
496.00	0.0133
496.07	0.0136
496.13	0.0139
496.20	0.0142
496.27	0.0146
496.33	0.0149
496.40	0.0155
496.47	0.0161
496.53	0.0161
496.60	0.0167
496.67	0.0170
496.73	0.0177
496.80	0.0180
496.87	0.0186
496.93	0.0192
497.00	0.0192
497.07	0.0198
497.13	0.0204
497.20	0.0208
497.27	0.0214
497.33	0.0220
497.40	0.0226
497.47	0.0232
497.53	0.0242
497.60	0.0251
497.67	0.0260
497.73	0.0273
497.80	0.0282
497.87	0.0297
497.93	0.0307
498.00	0.0319
498.07	0.0328
498.13	0.0338
498.20	0.0347
498.27	0.0356
498.33	0.0359
498.40	0.0365
498.47	0.0369
498.53	0.0372
498.60	0.0375
498.67	0.0381
498.73	0.0381
498.80	0.0384
498.87	0.0387
498.93	0.0393
499.00	0.0396
499.07	0.0403
499.13	0.0409
499.20	0.0412
499.27	0.0418
499.33	0.0424
499.40	0.0430
499.47	0.0437
499.53	0.0446
499.60	0.0452
499.67	0.0455
499.73	0.0458
499.80	0.0468
499.87	0.0474
499.93	0.0483
500.00	0.0489
500.07	0.0499
500.13	0.0511
500.20	0.0520
500.27	0.0527
500.33	0.0539
500.40	0.0548
500.47	0.0557
500.53	0.0564
500.60	0.0573
500.67	0.0579
500.73	0.0588
500.80	0.0598
500.87	0.0607
500.93	0.0616
501.00	0.0629
501.07	0.0638
501.13	0.0644
501.20	0.0657
501.27	0.0666
501.33	0.0675
501.40	0.0678
501.47	0.0684
501.53	0.0691
501.60	0.0694
501.67	0.0700
501.73	0.0706
501.80	0.0715
501.87	0.0725
501.93	0.0731
502.00	0.0740
502.07	0.0753
502.13	0.0762
502.20	0.0771
502.27	0.0780
502.33	0.0796
502.40	0.0805
502.47	0.0818
502.53	0.0827
502.60	0.0836
502.67	0.0845
502.73	0.0858
502.80	0.0864
502.87	0.0873
502.93	0.0883
503.00	0.0889
503.07	0.0898
503.13	0.0907
503.20	0.0917
503.27	0.0923
503.33	0.0932
503.40	0.0945
503.47	0.0957
503.53	0.0969
503.60	0.0982
503.67	0.0994
503.73	0.1010
503.80	0.1022
503.87	0.1034
503.93	0.1050
504.00	0.1062
504.07	0.1072
504.13	0.1084
504.20	0.1093
504.27	0.1109
504.33	0.1121
504.40	0.1134
504.47	0.1149
504.53	0.1164
504.60	0.1180
504.67	0.1192
504.73	0.1208
504.80	0.1223
504.87	0.1239
504.93	0.1254
505.00	0.1270
505.07	0.1282
505.13	0.1298
505.20	0.1310
505.27	0.1322
505.33	0.1335
505.40	0.1347
505.47	0.1363
505.53	0.1372
505.60	0.1387
505.67	0.1397
505.73	0.1409
505.80	0.1422
505.87	0.1434
505.93	0.1446
506.00	0.1459
506.07	0.1474
506.13	0.1487
506.20	0.1499
506.27	0.1508
506.33	0.1521
506.40	0.1533
506.47	0.1545
506.53	0.1561
506.60	0.1576
506.67	0.1589
506.73	0.1604
506.80	0.1620
506.87	0.1638
506.93	0.1660
507.00	0.1679
507.07	0.1697
507.13	0.1716
507.20	0.1734
507.27	0.1753
507.33	0.1772
507.40	0.1787
507.47	0.1802
507.53	0.1812
507.60	0.1830
507.67	0.1843
507.73	0.1861
507.80	0.1874
507.87	0.1889
507.93	0.1902
508.00	0.1917
508.07	0.1929
508.13	0.1945
508.20	0.1960
508.27	0.1976
508.33	0.1988
508.40	0.2004
508.47	0.2019
508.53	0.2035
508.60	0.2050
508.67	0.2072
508.73	0.2091
508.80	0.2112
508.87	0.2134
508.93	0.2152
509.00	0.2177
509.07	0.2199
509.13	0.2221
509.20	0.2248
509.27	0.2270
509.33	0.2295
509.40	0.2320
509.47	0.2341
509.53	0.2366
509.60	0.2385
509.67	0.2406
509.73	0.2425
509.80	0.2444
509.87	0.2462
509.93	0.2478
510.00	0.2493
510.07	0.2509
510.13	0.2524
510.20	0.2546
510.27	0.2564
510.33	0.2583
510.40	0.2605
510.47	0.2626
510.53	0.2648
510.60	0.2667
510.67	0.2691
510.73	0.2713
510.80	0.2735
510.87	0.2759
510.93	0.2784
511.00	0.2812
511.07	0.2840
511.13	0.2868
511.20	0.2893
511.27	0.2921
511.33	0.2942
511.40	0.2967
511.47	0.2995
511.53	0.3017
511.60	0.3044
511.67	0.3069
511.73	0.3097
511.80	0.3122
511.87	0.3150
511.93	0.3174
512.00	0.3202
512.07	0.3227
512.13	0.3255
512.20	0.3280
512.27	0.3308
512.33	0.3332
512.40	0.3360
512.47	0.3391
512.53	0.3416
512.60	0.3441
512.67	0.3469
512.73	0.3497
512.80	0.3524
512.87	0.3552
512.93	0.3580
513.00	0.3608
513.07	0.3636
513.13	0.3667
513.20	0.3695
513.27	0.3726
513.33	0.3757
513.40	0.3785
513.47	0.3816
513.53	0.3843
513.60	0.3878
513.67	0.3908
513.73	0.3939
513.80	0.3974
513.87	0.4005
513.93	0.4035
514.00	0.4066
514.07	0.4101
514.13	0.4131
514.20	0.4166
514.27	0.4200
514.33	0.4237
514.40	0.4274
514.47	0.4311
514.53	0.4351
514.60	0.4389
514.67	0.4426
514.73	0.4466
514.80	0.4503
514.87	0.4537
514.93	0.4574
515.00	0.4612
515.07	0.4649
515.13	0.4686
515.20	0.4723
515.27	0.4757
515.33	0.4797
515.40	0.4831
515.47	0.4865
515.53	0.4900
515.60	0.4934
515.67	0.4968
515.73	0.5005
515.80	0.5042
515.87	0.5079
515.93	0.5116
516.00	0.5157
516.07	0.5197
516.13	0.5237
516.20	0.5274
516.27	0.5315
516.33	0.5358
516.40	0.5401
516.47	0.5442
516.53	0.5485
516.60	0.5531
516.67	0.5578
516.73	0.5624
516.80	0.5674
516.87	0.5714
516.93	0.5761
517.00	0.5798
517.07	0.5835
517.13	0.5878
517.20	0.5915
517.27	0.5953
517.33	0.5993
517.40	0.6030
517.47	0.6067
517.53	0.6107
517.60	0.6145
517.67	0.6185
517.73	0.6225
517.80	0.6268
517.87	0.6312
517.93	0.6358
518.00	0.6405
518.07	0.6454
518.13	0.6504
518.20	0.6556
518.27	0.6609
518.33	0.6662
518.40	0.6714
518.47	0.6767
518.53	0.6820
518.60	0.6875
518.67	0.6925
518.73	0.6975
518.80	0.7027
518.87	0.7077
518.93	0.7123
519.00	0.7170
519.07	0.7216
519.13	0.7266
519.20	0.7312
519.27	0.7356
519.33	0.7405
519.40	0.7448
519.47	0.7495
519.53	0.7541
519.60	0.7591
519.67	0.7637
519.73	0.7687
519.80	0.7740
519.87	0.7786
519.93	0.7836
520.00	0.7882
520.07	0.7928
520.13	0.7975
520.20	0.8018
520.27	0.8065
520.33	0.8108
520.40	0.8151
520.47	0.8210
520.53	0.8285
520.60	0.8374
520.67	0.8470
520.73	0.8563
520.80	0.8653
520.87	0.8737
520.93	0.8811
521.00	0.8876
521.07	0.8929
521.13	0.8975
521.20	0.9016
521.27	0.9050
521.33	0.9078
521.40	0.9099
521.47	0.9118
521.53	0.9136
521.60	0.9149
521.67	0.9164
521.73	0.9177
521.80	0.9192
521.87	0.9211
521.93	0.9226
522.00	0.9242
522.07	0.9263
522.13	0.9279
522.20	0.9300
522.27	0.9322
522.33	0.9344
522.40	0.9369
522.47	0.9393
522.53	0.9415
522.60	0.9443
522.67	0.9468
522.73	0.9496
522.80	0.9520
522.87	0.9548
522.93	0.9573
523.00	0.9601
523.07	0.9629
523.13	0.9657
523.20	0.9681
523.27	0.9706
523.33	0.9728
523.40	0.9750
523.47	0.9768
523.53	0.9790
523.60	0.9808
523.67	0.9824
523.73	0.9839
523.80	0.9855
523.87	0.9867
523.93	0.9880
524.00	0.9895
524.07	0.9908
524.13	0.9917
524.20	0.9923
524.27	0.9932
524.33	0.9935
524.40	0.9942
524.47	0.9945
524.53	0.9942
524.60	0.9942
524.67	0.9942
524.73	0.9938
524.80	0.9935
524.87	0.9929
524.93	0.9923
525.00	0.9917
525.07	0.9908
525.13	0.9898
525.20	0.9889
525.27	0.9877
525.33	0.9861
525.40	0.9842
525.47	0.9827
525.53	0.9805
525.60	0.9787
525.67	0.9762
525.73	0.9740
525.80	0.9719
525.87	0.9691
525.93	0.9663
526.00	0.9638
526.07	0.9604
526.13	0.9576
526.20	0.9539
526.27	0.9505
526.33	0.9468
526.40	0.9431
526.47	0.9393
526.53	0.9353
526.60	0.9313
526.67	0.9270
526.73	0.9220
526.80	0.9174
526.87	0.9124
526.93	0.9074
527.00	0.9022
527.07	0.8972
527.13	0.8920
527.20	0.8867
527.27	0.8814
527.33	0.8759
527.40	0.8703
527.47	0.8641
527.53	0.8585
527.60	0.8523
527.67	0.8461
527.73	0.8399
527.80	0.8337
527.87	0.8272
527.93	0.8207
528.00	0.8142
528.07	0.8080
528.13	0.8015
528.20	0.7950
528.27	0.7882
528.33	0.7814
528.40	0.7746
528.47	0.7678
528.53	0.7609
528.60	0.7535
528.67	0.7467
528.73	0.7396
528.80	0.7318
528.87	0.7244
528.93	0.7167
529.00	0.7089
529.07	0.7012
529.13	0.6934
529.20	0.6857
529.27	0.6779
529.33	0.6702
529.40	0.6625
529.47	0.6544
529.53	0.6467
529.60	0.6386
529.67	0.6306
529.73	0.6228
529.80	0.6151
529.87	0.6073
529.93	0.5996
530.00	0.5918
530.07	0.5844
530.13	0.5770
530.20	0.5692
530.27	0.5621
530.33	0.5547
530.40	0.5476
530.47	0.5398
530.53	0.5327
530.60	0.5253
530.67	0.5178
530.73	0.5107
530.80	0.5033
530.87	0.4958
530.93	0.4884
531.00	0.4807
531.07	0.4732
531.13	0.4661
531.20	0.4587
531.27	0.4516
531.33	0.4450
531.40	0.4379
531.47	0.4311
531.53	0.4246
531.60	0.4178
531.67	0.4116
531.73	0.4054
531.80	0.3992
531.87	0.3930
531.93	0.3868
532.00	0.3806
532.07	0.3747
532.13	0.3689
532.20	0.3633
532.27	0.3577
532.33	0.3521
532.40	0.3475
532.47	0.3425
532.53	0.3379
532.60	0.3332
532.67	0.3289
532.73	0.3246
532.80	0.3202
532.87	0.3159
532.93	0.3116
533.00	0.3072
533.07	0.3026
533.13	0.2982
533.20	0.2936
533.27	0.2893
533.33	0.2849
533.40	0.2806
533.47	0.2763
533.53	0.2722
533.60	0.2682
533.67	0.2645
533.73	0.2605
533.80	0.2567
533.87	0.2524
533.93	0.2487
534.00	0.2447
534.07	0.2413
534.13	0.2375
534.20	0.2344
534.27	0.2307
534.33	0.2273
534.40	0.2239
534.47	0.2205
534.53	0.2174
534.60	0.2146
534.67	0.2115
534.73	0.2087
534.80	0.2063
534.87	0.2038
534.93	0.2016
535.00	0.1995
535.07	0.1976
535.13	0.1957
535.20	0.1939
535.27	0.1926
535.33	0.1911
535.40	0.1895
535.47	0.1880
535.53	0.1871
535.60	0.1855
535.67	0.1846
535.73	0.1833
535.80	0.1824
535.87	0.1815
535.93	0.1802
536.00	0.1787
536.07	0.1778
536.13	0.1768
536.20	0.1753
536.27	0.1744
536.33	0.1731
536.40	0.1719
536.47	0.1710
536.53	0.1700
536.60	0.1694
536.67	0.1685
536.73	0.1682
536.80	0.1676
536.87	0.1669
536.93	0.1663
537.00	0.1654
537.07	0.1645
537.13	0.1638
537.20	0.1626
537.27	0.1617
537.33	0.1604
537.40	0.1595
537.47	0.1589
537.53	0.1580
537.60	0.1570
537.67	0.1564
537.73	0.1555
537.80	0.1545
537.87	0.1536
537.93	0.1527
538.00	0.1518
538.07	0.1508
538.13	0.1502
538.20	0.1493
538.27	0.1487
538.33	0.1483
538.40	0.1480
538.47	0.1474
538.53	0.1471
538.60	0.1471
538.67	0.1468
538.73	0.1465
538.80	0.1459
538.87	0.1456
538.93	0.1449
539.00	0.1446
539.07	0.1440
539.13	0.1437
539.20	0.1425
539.27	0.1418
539.33	0.1409
539.40	0.1400
539.47	0.1391
539.53	0.1381
539.60	0.1372
539.67	0.1363
539.73	0.1353
539.80	0.1344
539.87	0.1338
539.93	0.1332
540.00	0.1322
540.07	0.1319
540.13	0.1310
540.20	0.1304
540.27	0.1295
540.33	0.1285
540.40	0.1276
540.47	0.1270
540.53	0.1264
540.60	0.1257
540.67	0.1251
540.73	0.1248
540.80	0.1242
540.87	0.1236
540.93	0.1233
541.00	0.1230
541.07	0.1223
541.13	0.1223
541.20	0.1217
541.27	0.1214
541.33	0.1211
541.40	0.1205
541.47	0.1199
541.53	0.1189
541.60	0.1183
541.67	0.1177
541.73	0.1171
541.80	0.1168
541.87	0.1161
541.93	0.1155
542.00	0.1155
542.07	0.1149
542.13	0.1149
542.20	0.1143
542.27	0.1134
542.33	0.1127
542.40	0.1118
542.47	0.1112
542.53	0.1096
542.60	0.1087
542.67	0.1075
542.73	0.1065
542.80	0.1053
542.87	0.1044
542.93	0.1034
543.00	0.1025
543.07	0.1016
543.13	0.1013
543.20	0.1007
543.27	0.0997
543.33	0.0991
543.40	0.0988
543.47	0.0985
543.53	0.0985
543.60	0.0982
543.67	0.0982
543.73	0.0979
543.80	0.0982
543.87	0.0985
543.93	0.0988
544.00	0.0988
544.07	0.0991
544.13	0.0991
544.20	0.0994
544.27	0.0997
544.33	0.0997
544.40	0.1000
544.47	0.1000
544.53	0.1000
544.60	0.1003
544.67	0.1003
544.73	0.1003
544.80	0.1003
544.87	0.1003
544.93	0.1003
545.00	0.0997
545.07	0.0997
545.13	0.0997
545.20	0.0994
545.27	0.0994
545.33	0.0997
545.40	0.0994
545.47	0.0994
545.53	0.0994
545.60	0.0994
545.67	0.0991
545.73	0.0988
545.80	0.0982
545.87	0.0982
545.93	0.0976
546.00	0.0969
546.07	0.0963
546.13	0.0954
546.20	0.0945
546.27	0.0938
546.33	0.0929
546.40	0.0923
546.47	0.0917
546.53	0.0911
546.60	0.0911
546.67	0.0911
546.73	0.0907
546.80	0.0907
546.87	0.0911
546.93	0.0911
547.00	0.0914
547.07	0.0917
547.13	0.0917
547.20	0.0920
547.27	0.0923
547.33	0.0926
547.40	0.0926
547.47	0.0929
547.53	0.0929
547.60	0.0929
547.67	0.0929
547.73	0.0923
547.80	0.0920
547.87	0.0914
547.93	0.0904
548.00	0.0901
548.07	0.0892
548.13	0.0886
548.20	0.0880
548.27	0.0873
548.33	0.0867
548.40	0.0858
548.47	0.0852
548.53	0.0849
548.60	0.0842
548.67	0.0842
548.73	0.0839
548.80	0.0839
548.87	0.0839
548.93	0.0839
549.00	0.0839
549.07	0.0842
549.13	0.0842
549.20	0.0845
549.27	0.0849
549.33	0.0852
549.40	0.0852
549.47	0.0852
549.53	0.0852
549.60	0.0855
549.67	0.0858
549.73	0.0861
549.80	0.0861
549.87	0.0858
549.93	0.0858
550.00	0.0858
