Filename:	C:\Program Files\Pyris\Data\F-Praktikum\WS1819\BA-C-04\blei_50k-m.dsd

Temperature (°C)	Heat Flow Endo Up (mW)
100.17	0.0022
100.34	0.0022
100.50	0.0022
100.67	0.0028
100.84	0.0043
101.00	0.0077
101.17	0.0130
101.34	0.0213
101.50	0.0343
101.67	0.0543
101.84	0.0837
102.00	0.1253
102.17	0.1806
102.34	0.2516
102.50	0.3386
102.67	0.4414
102.84	0.5597
103.00	0.6915
103.17	0.8353
103.34	0.9881
103.50	1.1471
103.67	1.3101
103.84	1.4737
104.00	1.6355
104.17	1.7929
104.34	1.9445
104.50	2.0880
104.67	2.2220
104.84	2.3455
105.00	2.4578
105.17	2.5585
105.34	2.6471
105.50	2.7239
105.67	2.7894
105.84	2.8440
106.00	2.8885
106.17	2.9240
106.34	2.9508
106.50	2.9703
106.67	2.9833
106.84	2.9904
107.00	2.9925
107.17	2.9904
107.34	2.9848
107.50	2.9765
107.67	2.9660
107.84	2.9536
108.00	2.9403
108.17	2.9261
108.34	2.9116
108.50	2.8968
108.67	2.8823
108.84	2.8681
109.00	2.8545
109.17	2.8416
109.34	2.8292
109.50	2.8175
109.67	2.8070
109.84	2.7971
110.00	2.7882
110.17	2.7798
110.34	2.7727
110.50	2.7662
110.67	2.7607
110.84	2.7557
111.00	2.7514
111.17	2.7477
111.34	2.7449
111.50	2.7428
111.67	2.7412
111.84	2.7403
112.00	2.7397
112.17	2.7394
112.34	2.7394
112.50	2.7400
112.67	2.7406
112.84	2.7412
113.00	2.7422
113.17	2.7431
113.34	2.7443
113.50	2.7449
113.67	2.7459
113.84	2.7468
114.00	2.7474
114.17	2.7480
114.34	2.7483
114.50	2.7489
114.67	2.7493
114.84	2.7496
115.00	2.7496
115.17	2.7493
115.34	2.7489
115.50	2.7483
115.67	2.7477
115.84	2.7465
116.00	2.7452
116.17	2.7440
116.34	2.7425
116.50	2.7409
116.67	2.7394
116.84	2.7375
117.00	2.7357
117.17	2.7338
117.34	2.7320
117.50	2.7301
117.67	2.7283
117.84	2.7264
118.00	2.7246
118.17	2.7227
118.34	2.7209
118.50	2.7190
118.67	2.7172
118.84	2.7153
119.00	2.7134
119.17	2.7116
119.34	2.7094
119.50	2.7076
119.67	2.7057
119.84	2.7039
120.00	2.7020
120.17	2.7002
120.34	2.6983
120.50	2.6965
120.67	2.6946
120.84	2.6928
121.00	2.6909
121.17	2.6891
121.34	2.6872
121.50	2.6850
121.67	2.6832
121.84	2.6810
122.00	2.6789
122.17	2.6767
122.34	2.6746
122.50	2.6724
122.67	2.6702
122.84	2.6678
123.00	2.6656
123.17	2.6634
123.34	2.6613
123.50	2.6588
123.67	2.6563
123.84	2.6539
124.00	2.6511
124.17	2.6486
124.34	2.6462
124.50	2.6434
124.67	2.6409
124.84	2.6381
125.00	2.6357
125.17	2.6329
125.34	2.6304
125.50	2.6276
125.67	2.6249
125.84	2.6224
126.00	2.6196
126.17	2.6171
126.34	2.6147
126.50	2.6122
126.67	2.6100
126.84	2.6076
127.00	2.6057
127.17	2.6036
127.34	2.6017
127.50	2.5995
127.67	2.5977
127.84	2.5955
128.00	2.5934
128.17	2.5915
128.34	2.5894
128.50	2.5872
128.67	2.5847
128.84	2.5826
129.00	2.5804
129.17	2.5779
129.34	2.5755
129.50	2.5730
129.67	2.5705
129.84	2.5681
130.00	2.5653
130.17	2.5628
130.34	2.5600
130.50	2.5576
130.67	2.5548
130.84	2.5523
131.00	2.5495
131.17	2.5471
131.34	2.5443
131.50	2.5418
131.67	2.5393
131.84	2.5366
132.00	2.5341
132.17	2.5316
132.34	2.5292
132.50	2.5267
132.67	2.5242
132.84	2.5221
133.00	2.5196
133.17	2.5171
133.34	2.5146
133.50	2.5122
133.67	2.5097
133.84	2.5072
134.00	2.5051
134.17	2.5026
134.34	2.5001
134.50	2.4980
134.67	2.4958
134.84	2.4933
135.00	2.4912
135.17	2.4890
135.34	2.4869
135.50	2.4847
135.67	2.4825
135.84	2.4807
136.00	2.4785
136.17	2.4764
136.34	2.4742
136.50	2.4720
136.67	2.4696
136.84	2.4671
137.00	2.4643
137.17	2.4619
137.34	2.4591
137.50	2.4566
137.67	2.4538
137.84	2.4514
138.00	2.4489
138.17	2.4464
138.34	2.4436
138.50	2.4412
138.67	2.4387
138.84	2.4362
139.00	2.4335
139.17	2.4310
139.34	2.4282
139.50	2.4257
139.67	2.4233
139.84	2.4205
140.00	2.4177
140.17	2.4149
140.34	2.4119
140.50	2.4091
140.67	2.4063
140.84	2.4032
141.00	2.4004
141.17	2.3973
141.34	2.3943
141.50	2.3912
141.67	2.3881
141.84	2.3847
142.00	2.3816
142.17	2.3782
142.34	2.3751
142.50	2.3717
142.67	2.3686
142.84	2.3655
143.00	2.3625
143.17	2.3594
143.34	2.3566
143.50	2.3535
143.67	2.3507
143.84	2.3483
144.00	2.3455
144.17	2.3430
144.34	2.3405
144.50	2.3381
144.67	2.3356
144.84	2.3328
145.00	2.3304
145.17	2.3279
145.34	2.3254
145.50	2.3229
145.67	2.3208
145.84	2.3183
146.00	2.3158
146.17	2.3134
146.34	2.3109
146.50	2.3084
146.67	2.3060
146.84	2.3038
147.00	2.3013
147.17	2.2989
147.34	2.2964
147.50	2.2942
147.67	2.2918
147.84	2.2893
148.00	2.2868
148.17	2.2844
148.34	2.2819
148.50	2.2794
148.67	2.2770
148.84	2.2745
149.00	2.2720
149.17	2.2695
149.34	2.2671
149.50	2.2646
149.67	2.2621
149.84	2.2597
150.00	2.2575
150.17	2.2550
150.34	2.2526
150.50	2.2504
150.67	2.2479
150.84	2.2455
151.00	2.2430
151.17	2.2405
151.34	2.2381
151.50	2.2356
151.67	2.2334
151.84	2.2310
152.00	2.2285
152.17	2.2260
152.34	2.2232
152.50	2.2208
152.67	2.2180
152.84	2.2155
153.00	2.2127
153.17	2.2100
153.34	2.2072
153.50	2.2044
153.67	2.2013
153.84	2.1982
154.00	2.1951
154.17	2.1924
154.34	2.1896
154.50	2.1868
154.67	2.1843
154.84	2.1819
155.00	2.1794
155.17	2.1769
155.34	2.1748
155.50	2.1723
155.67	2.1701
155.84	2.1677
156.00	2.1655
156.17	2.1630
156.34	2.1609
156.50	2.1587
156.67	2.1566
156.84	2.1544
157.00	2.1522
157.17	2.1498
157.34	2.1476
157.50	2.1454
157.67	2.1430
157.84	2.1408
158.00	2.1383
158.17	2.1362
158.34	2.1337
158.50	2.1312
158.67	2.1288
158.84	2.1260
159.00	2.1235
159.17	2.1211
159.34	2.1183
159.50	2.1155
159.67	2.1127
159.84	2.1096
160.00	2.1069
160.17	2.1041
160.34	2.1013
160.50	2.0985
160.67	2.0957
160.84	2.0933
161.00	2.0908
161.17	2.0883
161.34	2.0856
161.50	2.0834
161.67	2.0809
161.84	2.0785
162.00	2.0760
162.17	2.0735
162.34	2.0714
162.50	2.0692
162.67	2.0670
162.84	2.0649
163.00	2.0624
163.17	2.0602
163.34	2.0581
163.50	2.0556
163.67	2.0531
163.84	2.0510
164.00	2.0485
164.17	2.0467
164.34	2.0445
164.50	2.0423
164.67	2.0405
164.84	2.0386
165.00	2.0365
165.17	2.0346
165.34	2.0325
165.50	2.0309
165.67	2.0291
165.84	2.0275
166.00	2.0263
166.17	2.0251
166.34	2.0238
166.50	2.0229
166.67	2.0220
166.84	2.0207
167.00	2.0198
167.17	2.0189
167.34	2.0180
167.50	2.0167
167.67	2.0158
167.84	2.0146
168.00	2.0133
168.17	2.0121
168.34	2.0102
168.50	2.0084
168.67	2.0065
168.84	2.0047
169.00	2.0025
169.17	2.0007
169.34	1.9985
169.50	1.9967
169.67	1.9948
169.84	1.9933
170.00	1.9917
170.17	1.9902
170.34	1.9886
170.50	1.9874
170.67	1.9859
170.84	1.9846
171.00	1.9834
171.17	1.9821
171.34	1.9809
171.50	1.9794
171.67	1.9781
171.84	1.9769
172.00	1.9757
172.17	1.9744
172.34	1.9729
172.50	1.9716
172.67	1.9701
172.84	1.9689
173.00	1.9673
173.17	1.9658
173.34	1.9645
173.50	1.9630
173.67	1.9618
173.84	1.9602
174.00	1.9587
174.17	1.9574
174.34	1.9559
174.50	1.9547
174.67	1.9531
174.84	1.9519
175.00	1.9503
175.17	1.9488
175.34	1.9476
175.50	1.9460
175.67	1.9442
175.84	1.9426
176.00	1.9411
176.17	1.9395
176.34	1.9377
176.50	1.9361
176.67	1.9343
176.84	1.9324
177.00	1.9306
177.17	1.9287
177.34	1.9269
177.50	1.9250
177.67	1.9232
177.84	1.9213
178.00	1.9195
178.17	1.9173
178.34	1.9155
178.50	1.9133
178.67	1.9111
178.84	1.9090
179.00	1.9068
179.17	1.9047
179.34	1.9022
179.50	1.9000
179.67	1.8976
179.84	1.8951
180.00	1.8926
180.17	1.8905
180.34	1.8880
180.50	1.8858
180.67	1.8837
180.84	1.8815
181.00	1.8797
181.17	1.8778
181.34	1.8763
181.50	1.8744
181.67	1.8726
181.84	1.8710
182.00	1.8692
182.17	1.8676
182.34	1.8661
182.50	1.8642
182.67	1.8627
182.84	1.8611
183.00	1.8599
183.17	1.8587
183.34	1.8571
183.50	1.8559
183.67	1.8550
183.84	1.8537
184.00	1.8525
184.17	1.8516
184.34	1.8503
184.50	1.8488
184.67	1.8476
184.84	1.8463
185.00	1.8448
185.17	1.8432
185.34	1.8420
185.50	1.8405
185.67	1.8392
185.84	1.8377
186.00	1.8361
186.17	1.8349
186.34	1.8334
186.50	1.8321
186.67	1.8309
186.84	1.8296
187.00	1.8284
187.17	1.8272
187.34	1.8263
187.50	1.8250
187.67	1.8238
187.84	1.8225
188.00	1.8213
188.17	1.8204
188.34	1.8192
188.50	1.8182
188.67	1.8170
188.84	1.8161
189.00	1.8148
189.17	1.8139
189.34	1.8127
189.50	1.8114
189.67	1.8102
189.84	1.8087
190.00	1.8074
190.17	1.8059
190.34	1.8046
190.50	1.8034
190.67	1.8019
190.84	1.8006
191.00	1.7994
191.17	1.7982
191.34	1.7969
191.50	1.7954
191.67	1.7941
191.84	1.7929
192.00	1.7914
192.17	1.7904
192.34	1.7892
192.50	1.7883
192.67	1.7874
192.84	1.7864
193.00	1.7855
193.17	1.7846
193.34	1.7837
193.50	1.7827
193.67	1.7815
193.84	1.7803
194.00	1.7790
194.17	1.7778
194.34	1.7762
194.50	1.7750
194.67	1.7735
194.84	1.7722
195.00	1.7707
195.17	1.7695
195.34	1.7682
195.50	1.7670
195.67	1.7661
195.84	1.7648
196.00	1.7639
196.17	1.7630
196.34	1.7617
196.50	1.7608
196.67	1.7596
196.84	1.7583
197.00	1.7571
197.17	1.7556
197.34	1.7543
197.50	1.7528
197.67	1.7512
197.84	1.7497
198.00	1.7485
198.17	1.7469
198.34	1.7454
198.50	1.7441
198.67	1.7426
198.84	1.7417
199.00	1.7407
199.17	1.7398
199.34	1.7389
199.50	1.7383
199.67	1.7370
199.84	1.7361
200.00	1.7349
200.17	1.7336
200.34	1.7324
200.50	1.7312
200.67	1.7299
200.84	1.7287
201.00	1.7275
201.17	1.7265
201.34	1.7253
201.50	1.7244
201.67	1.7231
201.84	1.7219
202.00	1.7210
202.17	1.7198
202.34	1.7185
202.50	1.7173
202.67	1.7160
202.84	1.7151
203.00	1.7139
203.17	1.7130
203.34	1.7120
203.50	1.7108
203.67	1.7099
203.84	1.7093
204.00	1.7083
204.17	1.7074
204.34	1.7068
204.50	1.7059
204.67	1.7049
204.84	1.7043
205.00	1.7037
205.17	1.7028
205.34	1.7018
205.50	1.7009
205.67	1.7000
205.84	1.6991
206.00	1.6978
206.17	1.6969
206.34	1.6957
206.50	1.6947
206.67	1.6938
206.84	1.6929
207.00	1.6920
207.17	1.6910
207.34	1.6901
207.50	1.6892
207.67	1.6883
207.84	1.6876
208.00	1.6870
208.17	1.6864
208.34	1.6861
208.50	1.6855
208.67	1.6849
208.84	1.6843
209.00	1.6836
209.17	1.6827
209.34	1.6818
209.50	1.6805
209.67	1.6793
209.84	1.6781
210.00	1.6768
210.17	1.6756
210.34	1.6741
210.50	1.6728
210.67	1.6716
210.84	1.6707
211.00	1.6694
211.17	1.6685
211.34	1.6676
211.50	1.6670
211.67	1.6663
211.84	1.6660
212.00	1.6657
212.17	1.6654
212.34	1.6654
212.50	1.6654
212.67	1.6654
212.84	1.6654
213.00	1.6654
213.17	1.6651
213.34	1.6651
213.50	1.6648
213.67	1.6645
213.84	1.6642
214.00	1.6639
214.17	1.6636
214.34	1.6633
214.50	1.6630
214.67	1.6630
214.84	1.6626
215.00	1.6626
215.17	1.6626
215.34	1.6623
215.50	1.6623
215.67	1.6620
215.84	1.6620
216.00	1.6617
216.17	1.6614
216.34	1.6611
216.50	1.6605
216.67	1.6602
216.84	1.6596
217.00	1.6592
217.17	1.6589
217.34	1.6583
217.50	1.6577
217.67	1.6571
217.84	1.6565
218.00	1.6559
218.17	1.6552
218.34	1.6543
218.50	1.6534
218.67	1.6525
218.84	1.6515
219.00	1.6506
219.17	1.6494
219.34	1.6481
219.50	1.6472
219.67	1.6460
219.84	1.6450
220.00	1.6438
220.17	1.6426
220.34	1.6413
220.50	1.6401
220.67	1.6389
220.84	1.6376
221.00	1.6367
221.17	1.6355
221.34	1.6346
221.50	1.6336
221.67	1.6327
221.84	1.6318
222.00	1.6308
222.17	1.6299
222.34	1.6290
222.50	1.6278
222.67	1.6268
222.84	1.6256
223.00	1.6244
223.17	1.6231
223.34	1.6216
223.50	1.6204
223.67	1.6188
223.84	1.6176
224.00	1.6163
224.17	1.6154
224.34	1.6142
224.50	1.6133
224.67	1.6123
224.84	1.6117
225.00	1.6111
225.17	1.6105
225.34	1.6099
225.50	1.6092
225.67	1.6086
225.84	1.6080
226.00	1.6071
226.17	1.6065
226.34	1.6058
226.50	1.6049
226.67	1.6043
226.84	1.6034
227.00	1.6024
227.17	1.6015
227.34	1.6006
227.50	1.5997
227.67	1.5987
227.84	1.5978
228.00	1.5969
228.17	1.5960
228.34	1.5950
228.50	1.5941
228.67	1.5932
228.84	1.5923
229.00	1.5913
229.17	1.5907
229.34	1.5898
229.50	1.5889
229.67	1.5879
229.84	1.5870
230.00	1.5861
230.17	1.5855
230.34	1.5845
230.50	1.5836
230.67	1.5830
230.84	1.5824
231.00	1.5815
231.17	1.5808
231.34	1.5802
231.50	1.5796
231.67	1.5790
231.84	1.5787
232.00	1.5781
232.17	1.5778
232.34	1.5771
232.50	1.5768
232.67	1.5762
232.84	1.5759
233.00	1.5753
233.17	1.5747
233.34	1.5744
233.50	1.5737
233.67	1.5731
233.84	1.5725
234.00	1.5719
234.17	1.5716
234.34	1.5710
234.50	1.5707
234.67	1.5703
234.84	1.5700
235.00	1.5694
235.17	1.5691
235.34	1.5688
235.50	1.5682
235.67	1.5679
235.84	1.5673
236.00	1.5669
236.17	1.5663
236.34	1.5660
236.50	1.5654
236.67	1.5648
236.84	1.5642
237.00	1.5636
237.17	1.5626
237.34	1.5620
237.50	1.5614
237.67	1.5605
237.84	1.5598
238.00	1.5589
238.17	1.5583
238.34	1.5574
238.50	1.5568
238.67	1.5558
238.84	1.5552
239.00	1.5546
239.17	1.5540
239.34	1.5534
239.50	1.5527
239.67	1.5521
239.84	1.5518
240.00	1.5512
240.17	1.5509
240.34	1.5506
240.50	1.5503
240.67	1.5503
240.84	1.5497
241.00	1.5494
241.17	1.5487
241.34	1.5478
241.50	1.5472
241.67	1.5463
241.84	1.5456
242.00	1.5447
242.17	1.5441
242.34	1.5435
242.50	1.5429
242.67	1.5423
242.84	1.5416
243.00	1.5413
243.17	1.5407
243.34	1.5407
243.50	1.5404
243.67	1.5401
243.84	1.5398
244.00	1.5398
244.17	1.5395
244.34	1.5392
244.50	1.5389
244.67	1.5385
244.84	1.5382
245.00	1.5376
245.17	1.5370
245.34	1.5364
245.50	1.5358
245.67	1.5352
245.84	1.5345
246.00	1.5336
246.17	1.5330
246.34	1.5321
246.50	1.5311
246.67	1.5302
246.84	1.5293
247.00	1.5287
247.17	1.5281
247.34	1.5277
247.50	1.5271
247.67	1.5268
247.84	1.5265
248.00	1.5262
248.17	1.5259
248.34	1.5253
248.50	1.5250
248.67	1.5243
248.84	1.5237
249.00	1.5234
249.17	1.5228
249.34	1.5225
249.50	1.5222
249.67	1.5219
249.84	1.5216
250.00	1.5213
250.17	1.5210
250.34	1.5203
250.50	1.5203
250.67	1.5200
250.84	1.5200
251.00	1.5197
251.17	1.5194
251.34	1.5194
251.50	1.5191
251.67	1.5185
251.84	1.5182
252.00	1.5179
252.17	1.5172
252.34	1.5169
252.50	1.5166
252.67	1.5166
252.84	1.5163
253.00	1.5160
253.17	1.5157
253.34	1.5154
253.50	1.5151
253.67	1.5145
253.84	1.5142
254.00	1.5142
254.17	1.5139
254.34	1.5135
254.50	1.5132
254.67	1.5129
254.84	1.5126
255.00	1.5123
255.17	1.5120
255.34	1.5114
255.50	1.5108
255.67	1.5105
255.84	1.5098
256.00	1.5092
256.17	1.5086
256.34	1.5080
256.50	1.5071
256.67	1.5064
256.84	1.5058
257.00	1.5049
257.17	1.5043
257.34	1.5034
257.50	1.5027
257.67	1.5018
257.84	1.5006
258.00	1.5000
258.17	1.4987
258.34	1.4978
258.50	1.4969
258.67	1.4959
258.84	1.4950
259.00	1.4941
259.17	1.4932
259.34	1.4922
259.50	1.4913
259.67	1.4904
259.84	1.4898
260.00	1.4892
260.17	1.4882
260.34	1.4873
260.50	1.4867
260.67	1.4858
260.84	1.4848
261.00	1.4839
261.17	1.4830
261.34	1.4821
261.50	1.4811
261.67	1.4802
261.84	1.4796
262.00	1.4787
262.17	1.4780
262.34	1.4774
262.50	1.4771
262.67	1.4768
262.84	1.4765
263.00	1.4762
263.17	1.4762
263.34	1.4762
263.50	1.4765
263.67	1.4768
263.84	1.4774
264.00	1.4777
264.17	1.4780
264.34	1.4780
264.50	1.4780
264.67	1.4777
264.84	1.4771
265.00	1.4762
265.17	1.4746
265.34	1.4731
265.50	1.4713
265.67	1.4691
265.84	1.4669
266.00	1.4645
266.17	1.4623
266.34	1.4598
266.50	1.4574
266.67	1.4552
266.84	1.4530
267.00	1.4512
267.17	1.4490
267.34	1.4472
267.50	1.4456
267.67	1.4441
267.84	1.4429
268.00	1.4416
268.17	1.4407
268.34	1.4398
268.50	1.4391
268.67	1.4382
268.84	1.4376
269.00	1.4373
269.17	1.4367
269.34	1.4364
269.50	1.4361
269.67	1.4358
269.84	1.4358
270.00	1.4351
270.17	1.4348
270.34	1.4342
270.50	1.4336
270.67	1.4327
270.84	1.4317
271.00	1.4308
271.17	1.4299
271.34	1.4290
271.50	1.4280
271.67	1.4271
271.84	1.4262
272.00	1.4256
272.17	1.4246
272.34	1.4240
272.50	1.4234
272.67	1.4228
272.84	1.4222
273.00	1.4216
273.17	1.4209
273.34	1.4206
273.50	1.4197
273.67	1.4191
273.84	1.4185
274.00	1.4175
274.17	1.4166
274.34	1.4157
274.50	1.4148
274.67	1.4138
274.84	1.4129
275.00	1.4123
275.17	1.4114
275.34	1.4104
275.50	1.4095
275.67	1.4086
275.84	1.4077
276.00	1.4067
276.17	1.4058
276.34	1.4052
276.50	1.4043
276.67	1.4033
276.84	1.4024
277.00	1.4018
277.17	1.4012
277.34	1.4003
277.50	1.3996
277.67	1.3990
277.84	1.3984
278.00	1.3978
278.17	1.3972
278.34	1.3962
278.50	1.3956
278.67	1.3947
278.84	1.3941
279.00	1.3935
279.17	1.3928
279.34	1.3922
279.50	1.3916
279.67	1.3910
279.84	1.3907
280.00	1.3901
280.17	1.3894
280.34	1.3891
280.50	1.3885
280.67	1.3879
280.84	1.3876
281.00	1.3870
281.17	1.3867
281.34	1.3861
281.50	1.3857
281.67	1.3854
281.84	1.3851
282.00	1.3848
282.17	1.3845
282.34	1.3842
282.50	1.3839
282.67	1.3836
282.84	1.3830
283.00	1.3823
283.17	1.3814
283.34	1.3805
283.50	1.3796
283.67	1.3786
283.84	1.3780
284.00	1.3771
284.17	1.3765
284.34	1.3759
284.50	1.3756
284.67	1.3749
284.84	1.3743
285.00	1.3740
285.17	1.3737
285.34	1.3734
285.50	1.3731
285.67	1.3731
285.84	1.3731
286.00	1.3734
286.17	1.3737
286.34	1.3737
286.50	1.3740
286.67	1.3743
286.84	1.3746
287.00	1.3749
287.17	1.3752
287.34	1.3756
287.50	1.3759
287.67	1.3765
287.84	1.3768
288.00	1.3771
288.17	1.3774
288.34	1.3777
288.50	1.3780
288.67	1.3786
288.84	1.3793
289.00	1.3799
289.17	1.3805
289.34	1.3811
289.50	1.3817
289.67	1.3823
289.84	1.3830
290.00	1.3839
290.17	1.3845
290.34	1.3848
290.50	1.3854
290.67	1.3861
290.84	1.3864
291.00	1.3870
291.17	1.3873
291.34	1.3876
291.50	1.3876
291.67	1.3879
291.84	1.3882
292.00	1.3882
292.17	1.3882
292.34	1.3882
292.50	1.3879
292.67	1.3876
292.84	1.3873
293.00	1.3870
293.17	1.3864
293.34	1.3861
293.50	1.3854
293.67	1.3851
293.84	1.3848
294.00	1.3848
294.17	1.3845
294.34	1.3842
294.50	1.3839
294.67	1.3833
294.84	1.3830
295.00	1.3827
295.17	1.3820
295.34	1.3814
295.50	1.3811
295.67	1.3805
295.84	1.3802
296.00	1.3799
296.17	1.3796
296.34	1.3793
296.50	1.3790
296.67	1.3790
296.84	1.3786
297.00	1.3780
297.17	1.3777
297.34	1.3771
297.50	1.3762
297.67	1.3752
297.84	1.3746
298.00	1.3737
298.17	1.3731
298.34	1.3725
298.50	1.3722
298.67	1.3719
298.84	1.3715
299.00	1.3712
299.17	1.3709
299.34	1.3709
299.50	1.3709
299.67	1.3709
299.84	1.3709
300.00	1.3709
300.17	1.3709
300.34	1.3706
300.50	1.3703
300.67	1.3697
300.84	1.3694
301.00	1.3688
301.17	1.3685
301.34	1.3678
301.50	1.3675
301.67	1.3672
301.84	1.3669
302.00	1.3669
302.17	1.3669
302.34	1.3669
302.50	1.3672
302.67	1.3675
302.84	1.3681
303.00	1.3688
303.17	1.3691
303.34	1.3697
303.50	1.3703
303.67	1.3709
303.84	1.3715
304.00	1.3722
304.17	1.3731
304.34	1.3737
304.50	1.3743
304.67	1.3749
304.84	1.3756
305.00	1.3762
305.17	1.3765
305.34	1.3771
305.50	1.3774
305.67	1.3780
305.84	1.3783
306.00	1.3790
306.17	1.3799
306.34	1.3805
306.50	1.3811
306.67	1.3820
306.84	1.3827
307.00	1.3836
307.17	1.3842
307.34	1.3848
307.50	1.3854
307.67	1.3861
307.84	1.3867
308.00	1.3870
308.17	1.3873
308.34	1.3876
308.50	1.3879
308.67	1.3882
308.84	1.3888
309.00	1.3891
309.17	1.3894
309.34	1.3901
309.50	1.3907
309.67	1.3913
309.84	1.3922
310.00	1.3932
310.17	1.3941
310.34	1.3950
310.50	1.3959
310.67	1.3969
310.84	1.3978
311.00	1.3987
311.17	1.3996
311.34	1.4006
311.50	1.4012
311.67	1.4021
311.84	1.4027
312.00	1.4033
312.17	1.4043
312.34	1.4049
312.50	1.4058
312.67	1.4064
312.84	1.4070
313.00	1.4080
313.17	1.4086
313.34	1.4092
313.50	1.4098
313.67	1.4101
313.84	1.4107
314.00	1.4117
314.17	1.4126
314.34	1.4141
314.50	1.4157
314.67	1.4175
314.84	1.4191
315.00	1.4206
315.17	1.4219
315.34	1.4231
315.50	1.4237
315.67	1.4243
315.84	1.4246
316.00	1.4249
316.17	1.4249
316.34	1.4246
316.50	1.4246
316.67	1.4243
316.84	1.4243
317.00	1.4240
317.17	1.4237
317.34	1.4234
317.50	1.4231
317.67	1.4228
317.84	1.4228
318.00	1.4225
318.17	1.4225
318.34	1.4228
318.50	1.4228
318.67	1.4228
318.84	1.4231
319.00	1.4234
319.17	1.4237
319.34	1.4240
319.50	1.4246
319.67	1.4253
319.84	1.4259
320.00	1.4265
320.17	1.4268
320.34	1.4274
320.50	1.4280
320.67	1.4287
320.84	1.4293
321.00	1.4299
321.17	1.4305
321.34	1.4311
321.50	1.4314
321.67	1.4317
321.84	1.4320
322.00	1.4324
322.17	1.4327
322.34	1.4330
322.50	1.4333
322.67	1.4336
322.84	1.4339
323.00	1.4342
323.17	1.4348
323.34	1.4351
323.50	1.4358
323.67	1.4364
323.84	1.4370
324.00	1.4376
324.17	1.4385
324.34	1.4395
324.50	1.4407
324.67	1.4422
324.84	1.4456
325.00	1.4527
325.17	1.4675
325.34	1.4972
325.50	1.5521
325.67	1.6457
325.84	1.7938
326.00	2.0139
326.17	2.3226
326.34	2.7360
326.50	3.2676
326.67	3.9269
326.84	4.7212
327.00	5.6538
327.17	6.7244
327.34	7.9304
327.50	9.2668
327.67	10.7279
327.84	12.3053
328.00	13.9911
328.17	15.7760
328.34	17.7276
328.50	19.6727
328.67	21.6897
328.84	23.7688
329.00	25.9019
329.17	28.0813
329.34	30.2999
329.50	32.5521
329.67	34.8319
329.84	37.1344
330.00	39.4543
330.17	41.7865
330.34	44.1261
330.50	46.4679
330.67	48.8054
330.84	51.1317
331.00	53.4389
331.17	55.7180
331.34	57.9598
331.50	60.1515
331.67	62.2754
331.84	64.2859
332.00	66.0862
332.17	67.5297
332.34	68.4620
332.50	68.7583
332.67	68.3471
332.84	67.2158
333.00	65.4022
333.17	62.9835
333.34	60.0629
333.50	56.7534
333.67	53.1706
333.84	49.4243
334.00	45.6128
334.17	41.8205
334.34	38.1161
334.50	34.5540
334.67	31.1753
334.84	28.0081
335.00	25.0696
335.17	22.3685
335.34	19.9057
335.50	17.6776
335.67	15.6747
335.84	13.8855
336.00	12.2963
336.17	10.8918
336.34	9.6564
336.50	8.5744
336.67	7.6298
336.84	6.8086
337.00	6.0962
337.17	5.4803
337.34	4.9490
337.50	4.4912
337.67	4.0976
337.84	3.7593
338.00	3.4685
338.17	3.2188
338.34	3.0042
338.50	2.8193
338.67	2.6600
338.84	2.5224
339.00	2.4029
339.17	2.2995
339.34	2.2093
339.50	2.1303
339.67	2.0612
339.84	2.0004
340.00	1.9466
340.17	1.8988
340.34	1.8562
340.50	1.8185
340.67	1.7846
340.84	1.7543
341.00	1.7269
341.17	1.7022
341.34	1.6799
341.50	1.6599
341.67	1.6417
341.84	1.6250
342.00	1.6099
342.17	1.5963
342.34	1.5836
342.50	1.5725
342.67	1.5623
342.84	1.5531
343.00	1.5447
343.17	1.5373
343.34	1.5308
343.50	1.5247
343.67	1.5194
343.84	1.5148
344.00	1.5105
344.17	1.5068
344.34	1.5034
344.50	1.5003
344.67	1.4975
344.84	1.4950
345.00	1.4926
345.17	1.4904
345.34	1.4882
345.50	1.4861
345.67	1.4839
345.84	1.4821
346.00	1.4799
346.17	1.4780
346.34	1.4759
346.50	1.4737
346.67	1.4716
346.84	1.4694
347.00	1.4675
347.17	1.4654
347.34	1.4638
347.50	1.4620
347.67	1.4604
347.84	1.4592
348.00	1.4580
348.17	1.4567
348.34	1.4558
348.50	1.4549
348.67	1.4540
348.84	1.4530
349.00	1.4524
349.17	1.4518
349.34	1.4512
349.50	1.4509
349.67	1.4503
349.84	1.4500
350.00	1.4493
350.17	1.4490
350.34	1.4484
350.50	1.4478
350.67	1.4472
350.84	1.4466
351.00	1.4456
351.17	1.4450
351.34	1.4444
351.50	1.4438
351.67	1.4432
351.84	1.4425
352.00	1.4419
352.17	1.4416
352.34	1.4413
352.50	1.4410
352.67	1.4410
352.84	1.4407
353.00	1.4407
353.17	1.4407
353.34	1.4404
353.50	1.4404
353.67	1.4401
353.84	1.4398
354.00	1.4391
354.17	1.4388
354.34	1.4385
354.50	1.4379
354.67	1.4376
354.84	1.4376
355.00	1.4373
355.17	1.4373
355.34	1.4376
355.50	1.4379
355.67	1.4382
355.84	1.4385
356.00	1.4391
356.17	1.4395
356.34	1.4398
356.50	1.4401
356.67	1.4404
356.84	1.4407
357.00	1.4410
357.17	1.4413
357.34	1.4419
357.50	1.4422
357.67	1.4425
357.84	1.4425
358.00	1.4425
358.17	1.4425
358.34	1.4425
358.50	1.4422
358.67	1.4419
358.84	1.4416
359.00	1.4413
359.17	1.4407
359.34	1.4404
359.50	1.4398
359.67	1.4388
359.84	1.4382
360.00	1.4373
360.17	1.4364
360.34	1.4354
360.50	1.4345
360.67	1.4339
360.84	1.4333
361.00	1.4327
361.17	1.4320
361.34	1.4317
361.50	1.4314
361.67	1.4311
361.84	1.4308
362.00	1.4305
362.17	1.4302
362.34	1.4299
362.50	1.4296
362.67	1.4296
362.84	1.4296
363.00	1.4293
363.17	1.4290
363.34	1.4287
363.50	1.4280
363.67	1.4277
363.84	1.4271
364.00	1.4265
364.17	1.4259
364.34	1.4256
364.50	1.4253
364.67	1.4249
364.84	1.4246
365.00	1.4243
365.17	1.4240
365.34	1.4240
365.50	1.4237
365.67	1.4234
365.84	1.4234
366.00	1.4231
366.17	1.4231
366.34	1.4231
366.50	1.4228
366.67	1.4228
366.84	1.4228
367.00	1.4228
367.17	1.4225
367.34	1.4225
367.50	1.4225
367.67	1.4225
367.84	1.4225
368.00	1.4225
368.17	1.4225
368.34	1.4228
368.50	1.4228
368.67	1.4228
368.84	1.4231
369.00	1.4231
369.17	1.4231
369.34	1.4231
369.50	1.4231
369.67	1.4231
369.84	1.4231
370.00	1.4231
